// Start Time: Unknown
// Update Rate: 40.0Hz
// Filter Profile: human (46.1)
// Firmware Version: 4.3.4
PacketCounter	SampleTimeFine	Acc_X	Acc_Y	Acc_Z	Gyr_X	Gyr_Y	Gyr_Z	OriInc_q0	OriInc_q1	OriInc_q2	OriInc_q3	Mat[1][1]	Mat[2][1]	Mat[3][1]	Mat[1][2]	Mat[2][2]	Mat[3][2]	Mat[1][3]	Mat[2][3]	Mat[3][3]
10839		10.063166	0.764390	3.142678	-0.033279	0.057081	-0.030801	1.000000	-0.000416	0.000714	-0.000385	-0.296395	-0.072941	0.952276	0.450545	-0.889840	0.072073	0.842116	0.450405	0.296607
10840		10.258798	0.893638	3.288021	-0.238257	0.029716	-0.149954	0.999994	-0.002978	0.000371	-0.001874	-0.298699	-0.069932	0.951782	0.444406	-0.892774	0.073872	0.844560	0.445043	0.297749
10841		10.494501	0.083612	2.997212	-0.055715	-0.021238	-0.207801	0.999996	-0.000696	-0.000265	-0.002598	-0.300550	-0.065045	0.951546	0.441668	-0.893746	0.078409	0.845340	0.443833	0.297343
10842		10.731068	0.410296	2.874325	0.197897	-0.137536	-0.250851	0.999991	0.002474	-0.001719	-0.003136	-0.300373	-0.058221	0.952043	0.444098	-0.891882	0.085573	0.844128	0.448505	0.293753
10843		10.921127	0.667505	3.273826	0.177486	-0.219204	-0.306025	0.999986	0.002219	-0.002740	-0.003825	-0.299019	-0.048954	0.952991	0.445532	-0.890311	0.094060	0.843854	0.452713	0.288031
10844		10.771271	-0.059466	3.497202	0.271134	-0.327958	-0.394367	0.999974	0.003389	-0.004099	-0.004930	-0.296343	-0.036948	0.954367	0.448507	-0.887601	0.104904	0.843221	0.459128	0.279606
10845		10.439291	-0.363522	3.303672	0.837214	-0.334967	-0.454834	0.999920	0.010465	-0.004187	-0.005685	-0.294266	-0.023692	0.955430	0.462876	-0.878155	0.120787	0.836154	0.477789	0.269378
10846		9.901200	0.197658	3.268075	1.223818	-0.354361	-0.483179	0.999855	0.015297	-0.004429	-0.006039	-0.292286	-0.009859	0.956280	0.484837	-0.863442	0.139288	0.824319	0.504352	0.257152
10847		9.725884	0.389019	3.122151	1.379505	-0.302607	-0.469377	0.999827	0.017243	-0.003782	-0.005867	-0.291584	0.002810	0.956541	0.509607	-0.845807	0.157829	0.809493	0.533481	0.245192
10848		9.637833	0.145774	2.871940	1.444402	-0.189737	-0.385587	0.999823	0.018054	-0.002372	-0.004820	-0.292482	0.011806	0.956198	0.535699	-0.826274	0.174062	0.792137	0.563144	0.235346
10849		9.373464	0.287817	2.539246	1.548292	-0.112294	-0.244401	0.999807	0.019352	-0.001404	-0.003055	-0.293129	0.016201	0.955936	0.564192	-0.804273	0.186634	0.771857	0.594039	0.226615
10850		9.225939	0.156591	1.832549	1.648380	-0.030763	-0.063103	0.999787	0.020603	-0.000385	-0.000789	-0.292704	0.015249	0.956082	0.595109	-0.779722	0.194628	0.748445	0.625941	0.219153
10851		9.316437	0.462022	1.532873	1.744160	0.006653	0.118601	0.999761	0.021800	0.000083	0.001482	-0.289969	0.010007	0.956984	0.628014	-0.752549	0.198160	0.722160	0.658460	0.211932
10852		9.643821	0.979691	1.283146	1.664817	-0.055203	0.254716	0.999778	0.020809	-0.000690	0.003184	-0.283354	0.003102	0.959010	0.659476	-0.725399	0.197198	0.696277	0.688322	0.203499
10853		9.681076	1.842794	1.300391	1.319408	-0.200534	0.395371	0.999849	0.016492	-0.002507	0.004942	-0.271366	-0.003208	0.962471	0.685063	-0.703052	0.190808	0.676054	0.711132	0.192982
10854		9.652455	1.676214	1.182011	0.879496	-0.263055	0.540398	0.999911	0.010993	-0.003288	0.006755	-0.255667	-0.010064	0.966713	0.703552	-0.687754	0.178909	0.663060	0.725874	0.182916
10855		9.469181	1.294362	1.369811	0.641028	-0.265113	0.624300	0.999932	0.008013	-0.003314	0.007804	-0.238266	-0.017802	0.971037	0.718121	-0.676365	0.163808	0.653859	0.736351	0.173938
10856		9.126842	1.051262	0.912145	0.692407	-0.247830	0.700291	0.999919	0.008655	-0.003098	0.008753	-0.219576	-0.026902	0.975224	0.733495	-0.663644	0.146843	0.643251	0.747565	0.165453
10857		8.371200	1.725702	0.899230	0.756346	-0.279614	0.746539	0.999906	0.009454	-0.003495	0.009331	-0.199163	-0.035460	0.979325	0.749681	-0.649114	0.128957	0.631120	0.759864	0.155863
10858		8.460748	2.276188	1.635029	0.444812	-0.363394	0.675010	0.999939	0.005560	-0.004542	0.008437	-0.178856	-0.040555	0.983039	0.760049	-0.640164	0.111875	0.624769	0.767167	0.145321
10859		9.654069	2.059288	3.220935	-0.023818	-0.424730	0.562780	0.999961	-0.000298	-0.005309	0.007035	-0.160229	-0.042308	0.986173	0.762213	-0.640111	0.096380	0.627182	0.767117	0.134812
10860		10.811457	1.402350	4.321728	-0.064348	-0.490968	0.548986	0.999957	-0.000804	-0.006137	0.006862	-0.141585	-0.042727	0.989004	0.763279	-0.640897	0.081582	0.630364	0.766437	0.123354
10861		11.170585	1.691806	4.557885	0.338757	-0.400891	0.566612	0.999953	0.004234	-0.005011	0.007083	-0.124826	-0.045575	0.991131	0.770238	-0.634137	0.067847	0.625421	0.771876	0.114260
10862		10.825255	2.337301	4.954851	0.295867	-0.282207	0.474108	0.999969	0.003698	-0.003528	0.005926	-0.112520	-0.049784	0.992402	0.775938	-0.628277	0.056459	0.620692	0.776395	0.109323
10863		10.524135	2.245208	4.913360	0.259861	-0.199944	0.315267	0.999984	0.003248	-0.002499	0.003941	-0.105619	-0.053386	0.992973	0.780348	-0.623384	0.049488	0.616361	0.780091	0.107501
10864		10.188210	2.503040	4.563143	0.257551	-0.066943	0.196944	0.999991	0.003219	-0.000837	0.002462	-0.103986	-0.058000	0.992886	0.784209	-0.618791	0.045984	0.611722	0.783412	0.109830
10865		9.317471	2.856708	4.263343	0.055537	0.049616	0.083191	0.999999	0.000694	0.000620	0.001040	-0.107151	-0.063224	0.992231	0.784562	-0.618392	0.045321	0.610722	0.783322	0.115864
10866		8.617164	1.947766	4.327305	-0.478814	0.069663	-0.113892	0.999981	-0.005985	0.000871	-0.001424	-0.115188	-0.065687	0.991169	0.776047	-0.628807	0.048515	0.620067	0.774782	0.123407
10867		8.467470	0.697421	4.433923	-0.849737	0.040413	-0.310040	0.999936	-0.010621	0.000505	-0.003875	-0.126934	-0.064452	0.989815	0.760743	-0.646680	0.055449	0.636520	0.760034	0.131117
10868		8.708106	-0.759726	4.330249	-0.802309	0.062640	-0.417347	0.999936	-0.010029	0.000783	-0.005217	-0.141009	-0.062023	0.988064	0.745237	-0.663654	0.064695	0.651720	0.745464	0.139802
10869		9.105713	-1.494551	3.940713	-0.272145	0.079266	-0.412574	0.999980	-0.003402	0.000991	-0.005157	-0.154897	-0.060274	0.986090	0.737852	-0.670793	0.074902	0.656948	0.739191	0.148377
10870		9.295364	-0.779762	3.757630	0.171959	0.059603	-0.326310	0.999989	0.002149	0.000745	-0.004079	-0.166347	-0.060006	0.984240	0.737838	-0.669747	0.083870	0.654159	0.740161	0.155685
10871		9.158572	-0.087900	3.766178	0.141741	0.049409	-0.176388	0.999996	0.001772	0.000618	-0.002205	-0.174504	-0.062112	0.982696	0.737640	-0.669345	0.088681	0.652254	0.740351	0.162620
10872		9.180100	0.231158	3.655260	0.009458	0.054833	-0.023395	1.000000	0.000118	0.000685	-0.000292	-0.179706	-0.066797	0.981450	0.735745	-0.671383	0.089023	0.652982	0.738095	0.169797
10873		9.127024	-0.143723	3.411885	0.092258	0.104806	0.059736	0.999998	0.001153	0.001310	0.000747	-0.184020	-0.073699	0.980156	0.735488	-0.671855	0.087568	0.652069	0.737007	0.177839
10874		9.122083	0.169357	3.257669	0.525667	0.040532	0.129616	0.999977	0.006571	0.000507	0.001620	-0.185738	-0.080451	0.979300	0.742466	-0.664309	0.086245	0.643620	0.743116	0.183119
10875		9.406107	0.529461	3.190553	0.636802	0.024825	0.104512	0.999967	0.007960	0.000310	0.001306	-0.187410	-0.086383	0.978476	0.751043	-0.654621	0.086057	0.633098	0.751005	0.187560
10876		9.331347	1.098346	3.297227	0.600420	0.003817	0.065473	0.999971	0.007505	0.000048	0.000818	-0.189302	-0.091058	0.977688	0.758708	-0.645625	0.086772	0.623319	0.758206	0.191305
10877		9.466888	0.756707	3.205726	0.489128	-0.068008	0.034226	0.999981	0.006114	-0.000850	0.000428	-0.190612	-0.093479	0.977205	0.764231	-0.638918	0.087951	0.616132	0.763574	0.193225
10878		9.734532	0.564537	2.892548	0.577136	-0.042024	0.084416	0.999973	0.007214	-0.000525	0.001055	-0.191198	-0.097029	0.976744	0.771305	-0.630301	0.088370	0.607068	0.770264	0.195351
10879		9.954031	0.695186	2.940175	0.633374	-0.045476	0.102064	0.999968	0.007917	-0.000568	0.001276	-0.191231	-0.100507	0.976386	0.779121	-0.620565	0.088716	0.596994	0.777687	0.196978
10880		9.695353	0.764051	3.098795	0.679491	-0.101052	0.085193	0.999963	0.008494	-0.001263	0.001065	-0.190604	-0.102418	0.976310	0.787411	-0.609860	0.089749	0.586220	0.785864	0.196887
10881		9.295504	0.722118	2.891486	0.892391	-0.025581	0.109783	0.999937	0.011155	-0.000320	0.001372	-0.190438	-0.105989	0.975961	0.798701	-0.594768	0.091258	0.570798	0.796880	0.197920
10882		9.325528	1.223659	2.451611	0.953922	0.053335	0.043749	0.999929	0.011924	0.000667	0.000547	-0.192645	-0.109869	0.975098	0.810075	-0.578604	0.094848	0.553775	0.808175	0.200467
10883		10.093143	1.497396	2.312848	0.796467	0.005133	-0.009478	0.999950	0.009956	0.000064	-0.000118	-0.195106	-0.111871	0.974381	0.818884	-0.565345	0.099062	0.539779	0.817233	0.201911
10884		10.512500	1.572850	2.486187	0.522080	-0.043201	-0.029410	0.999978	0.006526	-0.000540	-0.000368	-0.197240	-0.112389	0.973892	0.823818	-0.557509	0.102508	0.531433	0.822528	0.202551
10885		9.930370	1.065907	2.442507	0.378133	-0.005423	-0.057077	0.999989	0.004727	-0.000068	-0.000713	-0.200348	-0.113051	0.973180	0.826621	-0.552692	0.105972	0.525889	0.825682	0.204182
10886		9.541637	0.789474	2.382407	0.438543	-0.005338	-0.111320	0.999984	0.005482	-0.000067	-0.001391	-0.204438	-0.112945	0.972342	0.830091	-0.546458	0.111054	0.518801	0.829835	0.205471
10887		9.736703	1.070206	2.387945	0.438710	0.016269	-0.134409	0.999984	0.005484	0.000203	-0.001680	-0.209193	-0.112875	0.971338	0.833402	-0.540203	0.116711	0.511546	0.833931	0.207077
10888		9.928130	1.327022	2.494898	0.381521	0.041080	-0.138813	0.999987	0.004769	0.000513	-0.001735	-0.214146	-0.113225	0.970217	0.836011	-0.534957	0.122094	0.505200	0.837258	0.209216
10889		9.907922	1.139062	2.385869	0.275144	0.028243	-0.150997	0.999992	0.003439	0.000353	-0.001887	-0.219188	-0.112798	0.969141	0.836854	-0.532420	0.127300	0.501630	0.838931	0.211095
10890		9.830371	0.909466	2.246771	0.278725	0.020015	-0.168468	0.999992	0.003484	0.000250	-0.002106	-0.224360	-0.112168	0.968029	0.838051	-0.529153	0.132920	0.497326	0.841080	0.212723
10891		9.713026	1.219621	2.191082	0.304885	0.032532	-0.227187	0.999989	0.003811	0.000407	-0.002840	-0.230839	-0.110821	0.966660	0.839053	-0.525701	0.140098	0.492649	0.843420	0.214337
10892		9.606164	1.392616	2.318009	0.241699	0.028832	-0.271517	0.999990	0.003021	0.000360	-0.003394	-0.238051	-0.108719	0.965149	0.838987	-0.523654	0.147947	0.489319	0.844966	0.215870
10893		9.564419	1.326187	2.219604	0.151399	0.033134	-0.284781	0.999992	0.001892	0.000414	-0.003560	-0.245570	-0.106645	0.963495	0.837966	-0.523045	0.155682	0.487349	0.845607	0.217809
10894		9.589378	1.319202	2.142354	0.109438	0.045102	-0.252145	0.999994	0.001368	0.000564	-0.003152	-0.252386	-0.105123	0.961899	0.836560	-0.523281	0.162311	0.486281	0.845652	0.220010
10895		9.504483	1.340132	2.118510	0.096579	0.035660	-0.222256	0.999995	0.001207	0.000446	-0.002778	-0.258409	-0.103830	0.960440	0.835332	-0.523393	0.168166	0.485227	0.845741	0.221982
10896		9.434021	1.211617	2.206997	0.060380	0.023272	-0.200838	0.999997	0.000755	0.000291	-0.002510	-0.263711	-0.102360	0.959155	0.833673	-0.524379	0.173250	0.485227	0.845310	0.223620
10897		9.555499	1.205547	2.177090	0.093610	0.019953	-0.188780	0.999997	0.001170	0.000249	-0.002360	-0.268654	-0.100851	0.957943	0.832427	-0.524695	0.178214	0.484655	0.845295	0.224913
10898		9.622534	1.507866	2.113555	0.149243	0.026533	-0.147772	0.999996	0.001866	0.000332	-0.001847	-0.272763	-0.099961	0.956874	0.832133	-0.523688	0.182497	0.482861	0.846025	0.226024
10899		9.623132	1.530793	2.139716	0.016396	0.006842	-0.116672	0.999999	0.000205	0.000086	-0.001458	-0.275846	-0.099145	0.956075	0.830614	-0.525152	0.185190	0.483724	0.845213	0.227212
10900		9.806671	1.176462	2.176065	-0.004149	0.006114	-0.098458	0.999999	-0.000052	0.000076	-0.001231	-0.278489	-0.098582	0.955367	0.829082	-0.526816	0.187316	0.484836	0.844243	0.228445
10901		9.829102	1.240016	2.177535	0.106434	0.024618	-0.068422	0.999999	0.001330	0.000308	-0.000855	-0.280686	-0.098668	0.954715	0.829035	-0.526160	0.189359	0.483649	0.844642	0.229485
10902		9.764493	0.967849	2.121700	0.056207	0.036017	-0.068200	0.999999	0.000703	0.000450	-0.000852	-0.282971	-0.099073	0.953998	0.828501	-0.526378	0.191082	0.483233	0.844459	0.231032
10903		9.725988	0.849519	2.094521	0.218432	0.030665	-0.040119	0.999996	0.002730	0.000383	-0.000501	-0.284571	-0.099704	0.953456	0.830138	-0.523063	0.193068	0.479468	0.846442	0.231617
10904		9.759993	1.399992	1.977906	0.376664	0.052487	0.002741	0.999989	0.004708	0.000656	0.000034	-0.285297	-0.101233	0.953078	0.833883	-0.516435	0.194763	0.472487	0.850321	0.231754
10905		9.538181	1.729424	1.909578	0.212708	0.056305	0.006062	0.999996	0.002659	0.000704	0.000076	-0.286115	-0.103152	0.952627	0.835935	-0.512814	0.195539	0.468350	0.852280	0.232952
10906		9.288162	1.428784	1.868456	0.102481	0.049432	-0.002761	0.999999	0.001281	0.000618	-0.000035	-0.286890	-0.104451	0.952252	0.836451	-0.511849	0.195858	0.466952	0.852702	0.234213
10907		9.453892	1.267760	1.786419	0.213134	0.065503	0.011790	0.999996	0.002664	0.000819	0.000147	-0.287523	-0.106312	0.951855	0.838430	-0.508360	0.196483	0.462996	0.854557	0.235300
10908		9.495154	1.518465	1.750284	0.207198	0.075285	0.011269	0.999996	0.002590	0.000941	0.000141	-0.288262	-0.108459	0.951389	0.840424	-0.504819	0.197091	0.458903	0.856384	0.236672
10909		9.500331	1.468097	1.852285	0.096925	0.061459	0.029799	0.999999	0.001212	0.000768	0.000372	-0.288344	-0.110466	0.951134	0.841291	-0.503581	0.196558	0.457260	0.856857	0.238139
10910		9.731640	1.426303	1.887915	0.210807	0.051574	0.106676	0.999995	0.002635	0.000645	0.001333	-0.286714	-0.113167	0.951309	0.844019	-0.499630	0.194942	0.453241	0.858815	0.238766
10911		9.775980	2.156503	2.130330	0.228744	0.054470	0.146944	0.999994	0.002859	0.000681	0.001837	-0.284242	-0.116482	0.951650	0.847282	-0.495042	0.192476	0.448687	0.861026	0.239405
10912		9.647604	2.390280	2.343538	-0.012438	0.026281	0.168496	0.999998	-0.000155	0.000329	0.002106	-0.281037	-0.119421	0.952238	0.847994	-0.495492	0.188132	0.449359	0.860364	0.240520
10913		9.661377	1.654356	2.356269	-0.188219	0.015958	0.159062	0.999995	-0.002353	0.000199	0.001988	-0.277858	-0.122025	0.952841	0.846671	-0.499693	0.182905	0.453809	0.857564	0.242158
10914		9.600321	1.140597	2.457871	-0.102991	-0.004831	0.155481	0.999997	-0.001287	-0.000060	0.001944	-0.274572	-0.124072	0.953528	0.846244	-0.502057	0.178352	0.456597	0.855888	0.242846
10915		9.648638	1.345310	2.569156	-0.024500	-0.016103	0.195356	0.999997	-0.000306	-0.000201	0.002442	-0.270071	-0.126419	0.954505	0.846986	-0.502652	0.173076	0.457904	0.855196	0.242827
10916		9.796826	1.451302	2.653054	-0.065585	0.003629	0.225037	0.999996	-0.000820	0.000045	0.002813	-0.265221	-0.129488	0.955453	0.847401	-0.504034	0.166918	0.459967	0.853922	0.243408
10917		9.810422	1.372042	2.588349	-0.118032	-0.001868	0.235310	0.999995	-0.001475	-0.000023	0.002941	-0.260096	-0.132527	0.956445	0.847225	-0.506499	0.160214	0.463206	0.851995	0.244018
10918		9.641359	1.173090	2.545830	-0.140487	-0.003177	0.243721	0.999994	-0.001756	-0.000040	0.003047	-0.254811	-0.135604	0.957435	0.846785	-0.509391	0.153217	0.466932	0.849784	0.244626
10919		9.505160	1.218545	2.504800	-0.118800	0.017483	0.244443	0.999994	-0.001485	0.000219	0.003056	-0.249828	-0.139323	0.958215	0.846621	-0.511682	0.146336	0.469913	0.847804	0.245786
10920		9.668018	1.279865	2.570880	-0.213165	0.022098	0.250958	0.999991	-0.002665	0.000276	0.003137	-0.244569	-0.143038	0.959024	0.845274	-0.516046	0.138593	0.475076	0.844533	0.247115
10921		10.026021	1.056369	2.587655	-0.302108	0.018241	0.265406	0.999987	-0.003776	0.000228	0.003318	-0.239138	-0.146942	0.959802	0.842907	-0.522098	0.130082	0.481996	0.840132	0.248712
10922		10.169898	0.769728	2.544128	-0.317254	0.041695	0.252509	0.999987	-0.003966	0.000521	0.003156	-0.234199	-0.151278	0.960347	0.840213	-0.528433	0.121661	0.489074	0.835388	0.250864
10923		9.885672	0.451987	2.675653	-0.298118	0.048640	0.175910	0.999990	-0.003726	0.000608	0.002199	-0.231049	-0.154614	0.960578	0.837176	-0.534640	0.115312	0.495735	0.830815	0.252967
10924		9.571879	0.382731	2.765247	-0.224880	0.052257	0.112937	0.999995	-0.002811	0.000653	0.001412	-0.229552	-0.157326	0.960497	0.834679	-0.539409	0.111129	0.500617	0.827216	0.255139
10925		9.624087	0.204081	2.731904	-0.206884	0.073281	0.075417	0.999996	-0.002586	0.000916	0.000943	-0.228800	-0.159877	0.960255	0.832110	-0.544057	0.107684	0.505217	0.823676	0.257516
10926		9.716213	0.226607	2.702407	-0.098756	0.068509	0.085270	0.999998	-0.001234	0.000856	0.001066	-0.227680	-0.162569	0.960069	0.830952	-0.546435	0.104532	0.507622	0.821572	0.259499
10927		9.786231	0.641001	2.702062	-0.047129	0.051665	0.116694	0.999999	-0.000589	0.000646	0.001459	-0.225504	-0.165213	0.960131	0.830555	-0.547735	0.100820	0.509241	0.820177	0.260735
10928		9.640823	0.836723	2.763622	-0.104296	0.040172	0.111907	0.999998	-0.001304	0.000502	0.001399	-0.223724	-0.167832	0.960094	0.829528	-0.549947	0.097164	0.511694	0.818163	0.262258
10929		9.494850	0.801346	2.748330	-0.110958	0.040661	0.083875	0.999998	-0.001387	0.000508	0.001048	-0.222267	-0.170138	0.960026	0.828246	-0.552450	0.093850	0.514399	0.815998	0.263707
10930		9.569068	0.867138	2.703122	-0.172327	0.027714	0.072959	0.999997	-0.002154	0.000346	0.000912	-0.220986	-0.172092	0.959974	0.826135	-0.556161	0.090475	0.518330	0.813061	0.265075
10931		9.648518	0.668737	2.688735	-0.229095	0.037591	0.080559	0.999995	-0.002864	0.000470	0.001007	-0.219706	-0.174031	0.959918	0.823197	-0.561098	0.086688	0.523522	0.809248	0.266538
10932		9.587745	0.538019	2.648296	-0.193518	0.040776	0.066436	0.999997	-0.002419	0.000510	0.000830	-0.218735	-0.175790	0.959819	0.820612	-0.565357	0.083466	0.527968	0.805897	0.267919
10933		9.581082	0.486003	2.653433	-0.181005	0.038579	0.044138	0.999997	-0.002263	0.000482	0.000552	-0.218299	-0.177351	0.959631	0.818107	-0.569350	0.080882	0.532022	0.802737	0.269380
10934		9.618668	0.335039	2.637707	-0.160597	0.037902	0.030969	0.999998	-0.002007	0.000474	0.000387	-0.218243	-0.178685	0.959397	0.815794	-0.572940	0.078868	0.535584	0.799882	0.270810
10935		9.594873	0.314333	2.678586	-0.150870	0.025280	0.017417	0.999998	-0.001886	0.000316	0.000218	-0.217738	-0.179523	0.959355	0.813473	-0.576517	0.076745	0.539307	0.797119	0.271567
10936		9.725176	-0.008463	2.694377	-0.157018	0.022464	0.004126	0.999998	-0.001963	0.000281	0.000052	-0.217624	-0.180250	0.959244	0.811038	-0.580169	0.074981	0.543008	0.794301	0.272448
10937		9.971386	-0.117136	2.614385	0.017866	0.011617	0.011748	1.000000	0.000223	0.000145	0.000147	-0.217207	-0.180770	0.959241	0.810982	-0.580338	0.074270	0.543258	0.794060	0.272654
10938		9.840257	0.209334	2.574193	0.117826	-0.000674	0.020244	0.999999	0.001473	-0.000008	0.000253	-0.216795	-0.181242	0.959245	0.812371	-0.578386	0.074318	0.541344	0.795375	0.272627
10939		9.551648	0.372060	2.552172	0.130127	-0.008346	0.023410	0.999999	0.001627	-0.000104	0.000293	-0.216167	-0.181698	0.959301	0.813970	-0.576136	0.074294	0.539189	0.796902	0.272439
10940		9.565728	0.407549	2.506996	0.126865	0.020410	0.009526	0.999999	0.001586	0.000255	0.000119	-0.215860	-0.182348	0.959246	0.815371	-0.574146	0.074341	0.537191	0.798189	0.272617
10941		9.747206	0.304364	2.536497	0.153576	0.016537	-0.017389	0.999998	0.001920	0.000207	-0.000217	-0.216043	-0.182558	0.959165	0.817003	-0.571708	0.075209	0.534633	0.799889	0.272664
10942		9.861080	0.436162	2.594180	0.224771	-0.007247	-0.011590	0.999996	0.002810	-0.000091	-0.000145	-0.216136	-0.182160	0.959220	0.819569	-0.567805	0.076841	0.530652	0.802755	0.272016
10943		9.805345	0.661618	2.604567	0.278460	0.016028	0.014404	0.999994	0.003481	0.000200	0.000180	-0.216204	-0.182825	0.959078	0.823031	-0.562574	0.078294	0.525238	0.806279	0.272102
10944		9.681824	0.869988	2.567773	0.234000	0.020041	0.032476	0.999996	0.002925	0.000251	0.000406	-0.215938	-0.184080	0.958898	0.826073	-0.558012	0.078905	0.520551	0.809159	0.272559
10945		9.711615	0.770947	2.494127	0.183540	0.021616	0.043613	0.999997	0.002294	0.000270	0.000545	-0.214947	-0.185239	0.958898	0.828424	-0.554563	0.078570	0.517215	0.811262	0.272658
10946		9.896359	0.690782	2.474539	0.196234	0.041639	0.062818	0.999997	0.002453	0.000520	0.000785	-0.214140	-0.186859	0.958764	0.830975	-0.550779	0.078254	0.513444	0.813466	0.273219
10947		9.696539	0.968296	2.445025	0.231712	0.046888	0.086560	0.999995	0.002896	0.000586	0.001082	-0.213000	-0.188955	0.958607	0.834107	-0.546104	0.077692	0.508818	0.816129	0.273929
10948		9.515378	1.204347	2.423653	0.132960	0.057527	0.113180	0.999997	0.001662	0.000719	0.001415	-0.210795	-0.191721	0.958545	0.836141	-0.543335	0.075203	0.506393	0.817331	0.274838
10949		9.502400	1.120061	2.398472	0.046145	0.073349	0.127499	0.999998	0.000577	0.000917	0.001594	-0.208452	-0.194842	0.958428	0.837096	-0.542322	0.071813	0.505784	0.817266	0.276150
10950		9.515409	1.145765	2.512942	-0.017813	0.069249	0.124264	0.999998	-0.000223	0.000866	0.001553	-0.206317	-0.198223	0.958197	0.837373	-0.542374	0.068100	0.506202	0.816418	0.277888
10951		9.657455	1.106299	2.531769	-0.065333	0.051651	0.126462	0.999998	-0.000817	0.000646	0.001581	-0.204066	-0.200733	0.958156	0.836906	-0.543548	0.064370	0.507883	0.815023	0.278914
10952		9.735131	0.871780	2.548661	-0.202997	0.048275	0.121568	0.999995	-0.002537	0.000603	0.001520	-0.202152	-0.203103	0.958062	0.834651	-0.547497	0.060046	0.512340	0.811786	0.280198
10953		9.763797	0.489640	2.623964	-0.245872	0.030308	0.122672	0.999994	-0.003073	0.000379	0.001533	-0.199532	-0.205489	0.958103	0.831939	-0.552151	0.054835	0.517749	0.808025	0.281127
10954		9.754954	0.337727	2.665066	-0.193602	0.025023	0.124791	0.999996	-0.002420	0.000313	0.001560	-0.197443	-0.207595	0.958082	0.829824	-0.555727	0.050597	0.521928	0.805029	0.281992
10955		9.763243	0.244711	2.722253	-0.188445	0.026132	0.121116	0.999996	-0.002356	0.000327	0.001514	-0.194972	-0.209754	0.958117	0.827738	-0.559225	0.046013	0.526152	0.802041	0.282655
10956		9.801628	0.260850	2.702078	-0.210353	0.017031	0.098170	0.999996	-0.002629	0.000213	0.001227	-0.192990	-0.211630	0.958106	0.825307	-0.563131	0.041854	0.530682	0.798809	0.283338
10957		9.804638	0.097023	2.718626	-0.222006	0.002326	0.076895	0.999996	-0.002775	0.000029	0.000961	-0.191392	-0.212801	0.958168	0.822578	-0.567361	0.038302	0.535477	0.795498	0.283633
10958		9.775980	0.108561	2.773184	-0.186220	-0.017218	0.064410	0.999997	-0.002328	-0.000215	0.000805	-0.189498	-0.213288	0.958436	0.820169	-0.571045	0.035082	0.539827	0.792727	0.283144
10959		9.747177	0.147184	2.683416	-0.203104	-0.016990	0.050276	0.999997	-0.002539	-0.000212	0.000628	-0.188155	-0.213122	0.958737	0.817268	-0.575341	0.032496	0.544675	0.789660	0.282431
10960		9.778677	0.012013	2.712350	-0.249171	-0.018110	0.026492	0.999995	-0.003115	-0.000226	0.000331	-0.187746	-0.213209	0.958798	0.813856	-0.580275	0.030328	0.549900	0.786017	0.282465
10961		9.742875	-0.121723	2.772263	-0.234309	-0.043677	0.008040	0.999996	-0.002929	-0.000546	0.000100	-0.186701	-0.212318	0.959200	0.810422	-0.585166	0.028217	0.555300	0.782625	0.281318
10962		9.664594	-0.115996	2.777790	-0.161438	-0.047056	0.000812	0.999998	-0.002018	-0.000588	0.000010	-0.185700	-0.211600	0.959552	0.808050	-0.588513	0.026602	0.559080	0.780306	0.280270
10963		9.637403	-0.006997	2.713932	-0.135317	-0.033044	-0.013791	0.999998	-0.001691	-0.000413	-0.000172	-0.185501	-0.210792	0.959769	0.805925	-0.591452	0.025868	0.562205	0.778300	0.279597
10964		9.648341	0.019496	2.739264	-0.155348	-0.041460	-0.020337	0.999998	-0.001942	-0.000518	-0.000254	-0.184954	-0.209792	0.960093	0.803489	-0.594802	0.024814	0.565859	0.776014	0.278577
10965		9.624520	-0.030254	2.727987	-0.136377	-0.043510	-0.025308	0.999998	-0.001705	-0.000544	-0.000316	-0.184816	-0.208850	0.960325	0.801355	-0.597698	0.024236	0.568923	0.774040	0.277827
10966		9.662473	0.002553	2.698831	-0.109376	-0.043841	-0.029035	0.999999	-0.001367	-0.000548	-0.000363	-0.184447	-0.207193	0.960755	0.799324	-0.600422	0.023970	0.571892	0.772376	0.276361
10967		9.683627	0.008807	2.677277	-0.088451	-0.048370	-0.023968	0.999999	-0.001106	-0.000605	-0.000300	-0.183972	-0.206342	0.961029	0.797934	-0.602290	0.023433	0.573983	0.771149	0.275451
10968		9.746253	0.035276	2.604852	-0.073816	-0.036884	-0.010424	0.999999	-0.000923	-0.000461	-0.000130	-0.183120	-0.205096	0.961459	0.796460	-0.604262	0.022794	0.576297	0.769937	0.274003
10969		9.758653	0.080821	2.598591	-0.059480	-0.034308	0.000796	1.000000	-0.000744	-0.000429	0.000010	-0.182471	-0.204309	0.961750	0.795339	-0.605757	0.022214	0.578048	0.768971	0.273028
10970		9.659926	0.056077	2.612413	-0.033515	-0.036330	0.002828	1.000000	-0.000419	-0.000454	0.000035	-0.181999	-0.203634	0.961982	0.794674	-0.606641	0.021931	0.579112	0.768453	0.272230
10971		9.666550	0.113988	2.485125	0.014166	-0.025113	-0.008647	1.000000	0.000177	-0.000314	-0.000108	-0.181833	-0.202774	0.962195	0.794579	-0.606752	0.022290	0.579294	0.768593	0.271447
10972		9.799597	0.063164	2.565064	0.014888	-0.004300	-0.017931	1.000000	0.000186	-0.000054	-0.000224	-0.182043	-0.202290	0.962257	0.794495	-0.606845	0.022731	0.579343	0.768646	0.271190
10973		9.751895	0.232137	2.637784	0.033942	-0.015435	-0.002237	1.000000	0.000424	-0.000193	-0.000028	-0.181719	-0.201915	0.962397	0.794755	-0.606501	0.022819	0.579088	0.769017	0.270686
10974		9.582981	0.125142	2.585484	0.019482	-0.000686	-0.003395	1.000000	0.000244	-0.000009	-0.000042	-0.181423	-0.202074	0.962420	0.794940	-0.606269	0.022557	0.578927	0.769158	0.270628
10975		9.593393	0.068536	2.584106	0.033115	0.004612	-0.017637	1.000000	0.000414	0.000058	-0.000220	-0.181641	-0.201848	0.962426	0.795156	-0.605970	0.022983	0.578562	0.769453	0.270569
10976		9.764661	0.152116	2.500685	0.071012	0.009575	-0.015988	1.000000	0.000888	0.000120	-0.000200	-0.182282	-0.201760	0.962323	0.795956	-0.604881	0.023950	0.577258	0.770333	0.270851
10977		9.805557	0.140246	2.480122	0.049976	0.002346	0.002375	1.000000	0.000625	0.000029	0.000030	-0.182436	-0.202060	0.962231	0.796651	-0.603955	0.024217	0.576251	0.770980	0.271154
10978		9.792741	0.115804	2.552237	0.045338	0.005744	0.009674	1.000000	0.000567	0.000072	0.000121	-0.182356	-0.201984	0.962262	0.797039	-0.603436	0.024380	0.575739	0.771406	0.271029
10979		9.742772	0.172594	2.611724	0.051224	0.014109	-0.017441	1.000000	0.000640	0.000176	-0.000218	-0.182958	-0.201775	0.962192	0.797430	-0.602884	0.025202	0.575005	0.771892	0.271204
10980		9.660774	0.316406	2.650925	0.073668	0.023779	-0.041956	0.999999	0.000921	0.000297	-0.000524	-0.184387	-0.201757	0.961923	0.798250	-0.601729	0.026804	0.573409	0.772798	0.272004
10981		9.645990	0.297179	2.559755	0.039405	0.032599	-0.055213	1.000000	0.000493	0.000407	-0.000690	-0.185571	-0.201323	0.961786	0.798290	-0.601618	0.028094	0.572972	0.772997	0.272357
10982		9.690278	0.262795	2.545450	0.021079	0.034579	-0.039327	1.000000	0.000263	0.000432	-0.000492	-0.186712	-0.201363	0.961557	0.798270	-0.601599	0.029023	0.572628	0.773001	0.273068
10983		9.684325	0.262129	2.511521	0.018678	0.017887	-0.022136	1.000000	0.000233	0.000224	-0.000277	-0.187135	-0.201793	0.961385	0.798506	-0.601278	0.029223	0.572162	0.773140	0.273653
10984		9.618372	0.307923	2.547720	0.004423	0.012765	-0.010408	1.000000	0.000055	0.000160	-0.000130	-0.187840	-0.202291	0.961142	0.798600	-0.601136	0.029553	0.571799	0.773120	0.274467
10985		9.627011	0.271715	2.551903	0.005378	0.013510	-0.011039	1.000000	0.000067	0.000169	-0.000138	-0.187946	-0.202463	0.961085	0.798538	-0.601221	0.029505	0.571851	0.773008	0.274672
10986		9.689878	0.311812	2.532525	-0.014757	0.009299	-0.017618	1.000000	-0.000184	0.000116	-0.000220	-0.188253	-0.202337	0.961052	0.798116	-0.601775	0.029641	0.572339	0.772611	0.274775
10987		9.716586	0.236899	2.578374	-0.022680	0.005863	-0.013643	1.000000	-0.000284	0.000073	-0.000171	-0.188431	-0.202348	0.961015	0.797666	-0.602374	0.029569	0.572907	0.772140	0.274912
10988		9.721863	0.240180	2.571281	-0.001005	0.000600	-0.010155	1.000000	-0.000013	0.000007	-0.000127	-0.188676	-0.201924	0.961056	0.797326	-0.602809	0.029878	0.573300	0.771912	0.274735
10989		9.721940	0.311447	2.534112	-0.008325	0.003291	-0.004196	1.000000	-0.000104	0.000041	-0.000052	-0.188656	-0.201627	0.961122	0.796919	-0.603348	0.029853	0.573872	0.771568	0.274506
10990		9.644624	0.314515	2.575964	-0.029675	-0.009137	0.002011	1.000000	-0.000371	-0.000114	0.000025	-0.188523	-0.201470	0.961181	0.796390	-0.604059	0.029586	0.574649	0.771053	0.274328
10991		9.659058	0.214316	2.545126	-0.031239	-0.010885	0.005254	1.000000	-0.000390	-0.000136	0.000066	-0.188061	-0.201392	0.961288	0.795883	-0.604756	0.029005	0.575503	0.770527	0.274016
10992		9.706814	0.187984	2.535748	-0.017170	-0.013478	0.011331	1.000000	-0.000215	-0.000168	0.000142	-0.187468	-0.201374	0.961407	0.795618	-0.605132	0.028391	0.576062	0.770236	0.273660
10993		9.749305	0.215593	2.541918	-0.011460	-0.016304	0.020258	1.000000	-0.000143	-0.000204	0.000253	-0.186503	-0.201186	0.961635	0.795346	-0.605529	0.027568	0.576751	0.769974	0.272945
10994		9.702042	0.197170	2.538721	-0.013778	-0.014603	0.027412	1.000000	-0.000172	-0.000183	0.000343	-0.185488	-0.201375	0.961791	0.795220	-0.605740	0.026537	0.577251	0.769758	0.272495
10995		9.701644	0.141191	2.574355	-0.010099	-0.019747	0.030087	1.000000	-0.000126	-0.000247	0.000376	-0.184842	-0.201345	0.961922	0.795062	-0.605974	0.025939	0.577677	0.769582	0.272091
10996		9.680911	0.151020	2.533007	0.049054	-0.015724	0.028953	1.000000	0.000613	-0.000197	0.000362	-0.183893	-0.201541	0.962063	0.795832	-0.604985	0.025382	0.576918	0.770308	0.271645
10997		9.796890	0.233167	2.526383	0.011155	-0.010702	0.021088	1.000000	0.000139	-0.000134	0.000264	-0.183108	-0.201623	0.962195	0.795981	-0.604816	0.024741	0.576963	0.770419	0.271235
10998		9.821325	0.206881	2.595954	0.005031	-0.019444	0.039267	1.000000	0.000063	-0.000243	0.000491	-0.181900	-0.201652	0.962418	0.796040	-0.604778	0.023737	0.577263	0.770441	0.270533
10999		9.667042	0.299816	2.535218	0.027515	-0.006734	0.047870	1.000000	0.000344	-0.000084	0.000598	-0.180623	-0.202030	0.962580	0.796444	-0.604289	0.022618	0.577107	0.770726	0.270054
11000		9.575261	0.283004	2.551704	-0.012963	-0.009133	0.036484	1.000000	-0.000162	-0.000114	0.000456	-0.179597	-0.202406	0.962693	0.796316	-0.604499	0.021463	0.577603	0.770462	0.269745
11001		9.710423	0.157771	2.590811	-0.019853	-0.008423	0.035609	1.000000	-0.000248	-0.000105	0.000445	-0.178534	-0.202813	0.962805	0.796147	-0.604765	0.020238	0.578166	0.770147	0.269440
11002		9.760440	0.113600	2.570480	0.024096	-0.006635	0.041120	1.000000	0.000301	-0.000083	0.000514	-0.177356	-0.203271	0.962926	0.796587	-0.604220	0.019170	0.577922	0.770454	0.269085
11003		9.804783	0.196465	2.599946	0.022199	-0.006922	0.041429	1.000000	0.000277	-0.000087	0.000518	-0.176197	-0.203733	0.963041	0.796990	-0.603722	0.018098	0.577722	0.770722	0.268747
11004		9.761857	0.139173	2.621910	-0.004899	-0.001122	0.034332	1.000000	-0.000061	-0.000014	0.000429	-0.175327	-0.204123	0.963117	0.796961	-0.603788	0.017114	0.578025	0.770568	0.268539
11005		9.704151	0.141774	2.582679	0.022105	-0.001649	0.029182	1.000000	0.000276	-0.000021	0.000365	-0.174678	-0.204492	0.963157	0.797315	-0.603338	0.016504	0.577734	0.770822	0.268434
11006		9.748155	0.114794	2.526042	0.012936	0.000183	0.014491	1.000000	0.000162	0.000002	0.000181	-0.174506	-0.204669	0.963150	0.797470	-0.603137	0.016321	0.577572	0.770932	0.268468
11007		9.767368	0.089887	2.535762	0.015255	-0.003991	0.016245	1.000000	0.000191	-0.000050	0.000203	-0.173846	-0.204622	0.963279	0.797552	-0.603042	0.015838	0.577657	0.771019	0.268033
11008		9.719527	0.100070	2.550953	0.017050	-0.004421	0.019636	1.000000	0.000213	-0.000055	0.000245	-0.173208	-0.204552	0.963409	0.797661	-0.602910	0.015399	0.577699	0.771141	0.267592
11009		9.723278	0.141486	2.546074	0.009446	-0.005740	0.012506	1.000000	0.000118	-0.000072	0.000156	-0.172950	-0.204507	0.963465	0.797725	-0.602828	0.015241	0.577687	0.771216	0.267400
11010		9.751138	0.060952	2.518883	0.012950	0.006292	0.002732	1.000000	0.000162	0.000079	0.000034	-0.172967	-0.204528	0.963458	0.797759	-0.602783	0.015257	0.577635	0.771247	0.267426
11011		9.810435	0.076349	2.503253	0.021031	0.002279	-0.010417	1.000000	0.000263	0.000028	-0.000130	-0.173085	-0.204496	0.963443	0.798033	-0.602414	0.015503	0.577221	0.771543	0.267463
11012		9.807010	0.138794	2.532996	0.017470	0.000549	-0.012487	1.000000	0.000218	0.000007	-0.000156	-0.173310	-0.204129	0.963481	0.798075	-0.602347	0.015940	0.577096	0.771693	0.267304
11013		9.750745	0.173466	2.546033	0.016116	0.000445	-0.008265	1.000000	0.000201	0.000006	-0.000103	-0.173174	-0.204105	0.963510	0.798282	-0.602073	0.015937	0.576851	0.771913	0.267197
11014		9.727459	0.188242	2.495296	0.007884	-0.002834	-0.003439	1.000000	0.000099	-0.000035	-0.000043	-0.173025	-0.203800	0.963602	0.798219	-0.602156	0.015974	0.576983	0.771929	0.266865
11015		9.683870	0.218512	2.527876	-0.028033	-0.004080	-0.006759	1.000000	-0.000350	-0.000051	-0.000084	-0.172902	-0.203451	0.963697	0.797631	-0.602939	0.015817	0.577832	0.771410	0.266528
11016		9.658932	0.176416	2.538667	-0.038341	-0.012230	-0.010463	1.000000	-0.000479	-0.000153	-0.000131	-0.172876	-0.202848	0.963829	0.796820	-0.604010	0.015801	0.578957	0.770730	0.266052
11017		9.700839	0.050002	2.511114	-0.050739	-0.013489	-0.020097	1.000000	-0.000634	-0.000169	-0.000251	-0.172958	-0.202248	0.963940	0.795908	-0.605211	0.015827	0.580186	0.769945	0.265647
11018		9.765354	-0.052747	2.489359	-0.018608	-0.016683	-0.014687	1.000000	-0.000233	-0.000209	-0.000184	-0.173076	-0.201758	0.964022	0.795563	-0.605658	0.016075	0.580624	0.769722	0.265336
11019		9.784013	0.027656	2.507916	0.001381	-0.018269	-0.011869	1.000000	0.000017	-0.000228	-0.000148	-0.173087	-0.201129	0.964152	0.795422	-0.605833	0.016415	0.580814	0.769749	0.264844
11020		9.776427	0.081236	2.563183	0.004740	-0.024667	-0.011613	1.000000	0.000059	-0.000308	-0.000145	-0.172979	-0.200235	0.964357	0.795235	-0.606069	0.016802	0.581102	0.769796	0.264071
11021		9.693986	0.144348	2.496343	0.020838	-0.017575	-0.014866	1.000000	0.000260	-0.000220	-0.000186	-0.172963	-0.199425	0.964528	0.795250	-0.606035	0.017304	0.581087	0.770033	0.263415
11022		9.746945	0.133941	2.455292	0.002439	-0.009254	-0.020518	1.000000	0.000030	-0.000116	-0.000256	-0.173236	-0.199015	0.964563	0.795210	-0.606074	0.017771	0.581060	0.770108	0.263253
11023		9.800770	0.151258	2.513554	-0.018743	-0.023640	-0.010417	1.000000	-0.000234	-0.000296	-0.000130	-0.172930	-0.198314	0.964763	0.794812	-0.606595	0.017777	0.581695	0.769879	0.262520
11024		9.713330	0.155562	2.460854	-0.000713	-0.011850	0.008332	1.000000	-0.000009	-0.000148	0.000104	-0.172166	-0.198067	0.964950	0.794711	-0.606742	0.017252	0.582059	0.769827	0.261867
11025		9.628469	0.150734	2.482565	-0.010750	-0.009582	0.007366	1.000000	-0.000134	-0.000120	0.000092	-0.171632	-0.198005	0.965058	0.794586	-0.606919	0.016790	0.582388	0.769703	0.261499
11026		9.679385	0.091441	2.459742	-0.020634	-0.006760	0.005510	1.000000	-0.000258	-0.000085	0.000069	-0.171257	-0.198030	0.965119	0.794330	-0.607266	0.016348	0.582847	0.769423	0.261299
11027		9.758034	0.042540	2.482085	0.019592	-0.003252	0.012472	1.000000	0.000245	-0.000041	0.000156	-0.171005	-0.198056	0.965159	0.794527	-0.607013	0.016210	0.582653	0.769616	0.261163
11028		9.813573	0.171797	2.465830	0.021950	-0.003517	0.019766	1.000000	0.000274	-0.000044	0.000247	-0.170336	-0.198244	0.965238	0.794872	-0.606574	0.015691	0.582378	0.769914	0.260900
11029		9.802731	0.157461	2.504654	-0.017755	0.002606	0.025425	1.000000	-0.000222	0.000033	0.000318	-0.169672	-0.198546	0.965293	0.794588	-0.606969	0.014822	0.582960	0.769525	0.260748
11030		9.699745	0.108644	2.476719	-0.016348	0.003789	0.023065	1.000000	-0.000204	0.000047	0.000288	-0.169143	-0.198883	0.965317	0.794347	-0.607302	0.014064	0.583441	0.769175	0.260703
11031		9.714089	0.065601	2.471099	0.007923	0.007946	0.015508	1.000000	0.000099	0.000099	0.000194	-0.169101	-0.199112	0.965277	0.794358	-0.607291	0.013890	0.583438	0.769124	0.260860
11032		9.765133	0.086710	2.475696	0.002756	0.005833	0.012927	1.000000	0.000034	0.000073	0.000162	-0.168850	-0.199370	0.965267	0.794405	-0.607238	0.013541	0.583448	0.769099	0.260913
11033		9.757481	0.046740	2.478822	-0.003700	0.003592	0.021580	1.000000	-0.000046	0.000045	0.000270	-0.168385	-0.199725	0.965275	0.794388	-0.607273	0.012924	0.583605	0.768979	0.260915
11034		9.721769	0.060613	2.493277	0.012734	0.001478	0.021359	1.000000	0.000159	0.000018	0.000267	-0.167835	-0.199992	0.965316	0.794587	-0.607024	0.012390	0.583492	0.769107	0.260791
11035		9.736531	0.135058	2.466845	0.014091	0.002805	0.016186	1.000000	0.000176	0.000035	0.000202	-0.167444	-0.200263	0.965328	0.794814	-0.606735	0.011996	0.583295	0.769264	0.260766
11036		9.748297	0.119543	2.427024	0.010332	0.008380	0.012082	1.000000	0.000129	0.000105	0.000151	-0.167268	-0.200547	0.965299	0.794935	-0.606581	0.011726	0.583181	0.769311	0.260884
11037		9.733968	0.107869	2.417794	-0.005848	0.004279	0.016205	1.000000	-0.000073	0.000053	0.000203	-0.166887	-0.200983	0.965274	0.794991	-0.606519	0.011162	0.583214	0.769247	0.261000
11038		9.737824	0.081102	2.465962	-0.009624	0.001038	0.017357	1.000000	-0.000120	0.000013	0.000217	-0.166437	-0.201285	0.965289	0.794942	-0.606594	0.010577	0.583409	0.769109	0.260969
11039		9.764733	0.115395	2.490082	-0.000318	0.001953	0.013844	1.000000	-0.000004	0.000024	0.000173	-0.166186	-0.201578	0.965271	0.795002	-0.606520	0.010211	0.583398	0.769090	0.261050
11040		9.735098	0.078875	2.501657	-0.001912	0.002797	0.012381	1.000000	-0.000024	0.000035	0.000155	-0.165987	-0.201768	0.965266	0.794980	-0.606555	0.009918	0.583486	0.769013	0.261082
11041		9.715349	0.073251	2.477060	-0.002730	0.006537	0.010658	1.000000	-0.000034	0.000082	0.000133	-0.165610	-0.201816	0.965321	0.794800	-0.606797	0.009495	0.583837	0.768809	0.260895
11042		9.725551	0.047929	2.446913	0.004309	0.005114	0.011571	1.000000	0.000054	0.000064	0.000145	-0.165358	-0.201969	0.965332	0.794809	-0.606790	0.009194	0.583897	0.768775	0.260864
11043		9.754400	0.040721	2.466845	0.005157	-0.000231	0.008669	1.000000	0.000064	-0.000003	0.000108	-0.165232	-0.201900	0.965368	0.794734	-0.606890	0.009100	0.584034	0.768714	0.260734
11044		9.756913	0.098254	2.488476	0.005517	0.000736	0.009703	1.000000	0.000069	0.000009	0.000121	-0.165214	-0.201920	0.965367	0.794738	-0.606884	0.009074	0.584034	0.768713	0.260739
11045		9.769354	0.100255	2.486303	-0.013360	0.002693	0.014712	1.000000	-0.000167	0.000034	0.000184	-0.164882	-0.202065	0.965393	0.794494	-0.607212	0.008599	0.584460	0.768417	0.260658
11046		9.699149	0.048279	2.456059	-0.010614	0.002765	0.009081	1.000000	-0.000133	0.000035	0.000114	-0.164477	-0.202172	0.965440	0.794315	-0.607452	0.008117	0.584817	0.768198	0.260501
11047		9.768837	0.030259	2.432180	-0.009905	0.009618	0.000353	1.000000	-0.000124	0.000120	0.000004	-0.164560	-0.202231	0.965413	0.794060	-0.607786	0.008035	0.585140	0.767918	0.260600
11048		9.850355	0.037287	2.515410	-0.041317	0.003184	-0.001389	1.000000	-0.000516	0.000040	-0.000017	-0.164499	-0.202379	0.965393	0.793550	-0.608457	0.007665	0.585848	0.767348	0.260688
11049		9.749942	0.006085	2.491630	-0.023558	0.008241	0.008973	1.000000	-0.000294	0.000103	0.000112	-0.164243	-0.202761	0.965356	0.793337	-0.608741	0.007118	0.586208	0.767022	0.260839
11050		9.647894	0.044332	2.488748	0.001499	0.009981	-0.000592	1.000000	0.000019	0.000125	-0.000007	-0.164199	-0.202666	0.965383	0.793108	-0.609041	0.007039	0.586531	0.766809	0.260740
11051		9.700768	0.032483	2.467081	-0.018679	0.012327	-0.010467	1.000000	-0.000233	0.000154	-0.000131	-0.164375	-0.202664	0.965354	0.792715	-0.609552	0.007012	0.587013	0.766403	0.260850
11052		9.744557	-0.024971	2.456855	0.003497	0.009838	0.000530	1.000000	0.000044	0.000123	0.000007	-0.164516	-0.202711	0.965320	0.792647	-0.609640	0.007067	0.587066	0.766320	0.260974
11053		9.752166	0.027948	2.495022	0.007424	0.002211	0.008447	1.000000	0.000093	0.000028	0.000106	-0.164295	-0.202841	0.965330	0.792764	-0.609490	0.006856	0.586968	0.766406	0.260941
11054		9.753948	0.060819	2.502159	0.012967	0.006491	0.011124	1.000000	0.000162	0.000081	0.000139	-0.164149	-0.203053	0.965310	0.792939	-0.609264	0.006679	0.586773	0.766529	0.261019
11055		9.697657	0.104019	2.471281	0.004939	0.008543	0.007074	1.000000	0.000062	0.000107	0.000088	-0.163968	-0.203315	0.965286	0.793057	-0.609114	0.006417	0.586665	0.766579	0.261116
11056		9.725022	0.047978	2.461713	-0.011740	0.010423	0.002531	1.000000	-0.000147	0.000130	0.000032	-0.164038	-0.203530	0.965229	0.792890	-0.609332	0.006264	0.586870	0.766348	0.261331
11057		9.764557	0.036625	2.489597	-0.004830	0.001803	0.006316	1.000000	-0.000060	0.000023	0.000079	-0.163757	-0.203545	0.965274	0.792754	-0.609513	0.005963	0.587133	0.766201	0.261173
11058		9.722293	0.003109	2.480844	0.001299	0.004637	0.008275	1.000000	0.000016	0.000058	0.000103	-0.163592	-0.203637	0.965282	0.792719	-0.609560	0.005753	0.587226	0.766139	0.261146
11059		9.714566	0.044121	2.494445	0.008848	0.004619	0.005150	1.000000	0.000111	0.000058	0.000064	-0.163477	-0.203691	0.965290	0.792782	-0.609479	0.005653	0.587173	0.766189	0.261119
11060		9.726123	0.083623	2.449233	0.011887	0.003587	0.008023	1.000000	0.000149	0.000045	0.000100	-0.163269	-0.203833	0.965295	0.792964	-0.609244	0.005472	0.586985	0.766338	0.261103
11061		9.744353	0.106580	2.478271	0.010501	0.004843	0.008481	1.000000	0.000131	0.000061	0.000106	-0.163026	-0.203977	0.965306	0.793089	-0.609083	0.005237	0.586883	0.766427	0.261069
11062		9.745139	0.082863	2.476720	-0.018890	0.000738	0.005929	1.000000	-0.000236	0.000009	0.000074	-0.162845	-0.204060	0.965319	0.792863	-0.609380	0.004935	0.587239	0.766169	0.261026
11063		9.744009	0.023813	2.468370	-0.012311	-0.001141	0.008574	1.000000	-0.000154	-0.000014	0.000107	-0.162487	-0.204000	0.965392	0.792576	-0.609756	0.004550	0.587725	0.765886	0.260763
11064		9.727115	0.072067	2.487186	0.016956	0.000811	0.007393	1.000000	0.000212	0.000010	0.000092	-0.162276	-0.203969	0.965434	0.792723	-0.609565	0.004462	0.587585	0.766046	0.260608
11065		9.706185	0.136929	2.482250	0.006411	0.005535	0.004804	1.000000	0.000080	0.000069	0.000060	-0.162177	-0.204085	0.965426	0.792826	-0.609433	0.004353	0.587474	0.766121	0.260640
11066		9.724315	0.088275	2.477749	-0.021723	0.002182	0.004978	1.000000	-0.000272	0.000027	0.000062	-0.162018	-0.204099	0.965450	0.792454	-0.609919	0.004048	0.588020	0.765730	0.260557
11067		9.747373	0.001839	2.494795	-0.020650	-0.000301	0.002105	1.000000	-0.000258	-0.000004	0.000026	-0.161775	-0.204135	0.965483	0.792214	-0.610232	0.003719	0.588409	0.765471	0.260439
11068		9.749057	0.011248	2.484846	0.005665	-0.002990	-0.002295	1.000000	0.000071	-0.000037	-0.000029	-0.161488	-0.203905	0.965580	0.792199	-0.610251	0.003622	0.588508	0.765517	0.260081
11069		9.748836	0.065574	2.479612	0.000815	0.001302	-0.004878	1.000000	0.000010	0.000016	-0.000061	-0.161458	-0.203791	0.965609	0.792182	-0.610273	0.003662	0.588539	0.765530	0.259973
11070		9.750539	0.022617	2.475675	-0.017557	0.003449	-0.002999	1.000000	-0.000219	0.000043	-0.000037	-0.161330	-0.203854	0.965617	0.792006	-0.610504	0.003439	0.588811	0.765329	0.259946
11071		9.727872	-0.006365	2.491793	-0.001897	-0.004302	-0.002420	1.000000	-0.000024	-0.000054	-0.000030	-0.161219	-0.203702	0.965667	0.791975	-0.610543	0.003431	0.588883	0.765338	0.259759
11072		9.719315	0.048751	2.444800	0.015674	0.002342	-0.012615	1.000000	0.000196	0.000029	-0.000158	-0.161410	-0.203524	0.965673	0.792166	-0.610294	0.003783	0.588575	0.765584	0.259732
11073		9.826448	0.024258	2.503934	-0.012144	0.000089	-0.014224	1.000000	-0.000152	0.000001	-0.000178	-0.161625	-0.203210	0.965703	0.791879	-0.610664	0.004033	0.588901	0.765372	0.259616
11074		9.795958	0.080826	2.465326	-0.002772	-0.006680	0.000591	1.000000	-0.000035	-0.000083	0.000007	-0.161451	-0.203043	0.965768	0.791838	-0.610718	0.003978	0.589004	0.765374	0.259378
11075		9.631993	0.101445	2.449841	0.003119	0.006420	0.001390	1.000000	0.000039	0.000080	0.000017	-0.161368	-0.203094	0.965771	0.791851	-0.610702	0.003882	0.589010	0.765373	0.259368
11076		9.645558	0.031087	2.450949	-0.020982	0.001169	-0.000824	1.000000	-0.000262	0.000015	-0.000010	-0.161252	-0.203010	0.965808	0.791499	-0.611160	0.003686	0.589515	0.765030	0.259233
11077		9.759403	-0.004404	2.454102	0.013521	0.002368	0.003923	1.000000	0.000169	0.000030	0.000049	-0.161064	-0.203025	0.965836	0.791680	-0.610925	0.003601	0.589322	0.765213	0.259129
11078		9.792221	0.118972	2.458151	0.016750	0.000517	0.009665	1.000000	0.000209	0.000006	0.000121	-0.160832	-0.203082	0.965863	0.791928	-0.610604	0.003484	0.589052	0.765455	0.259031
11079		9.780865	0.106682	2.497749	-0.023738	0.005345	0.015917	1.000000	-0.000297	0.000067	0.000199	-0.160553	-0.203320	0.965859	0.791600	-0.611033	0.002960	0.589570	0.765049	0.259051
11080		9.699350	0.051681	2.483888	-0.029919	0.006591	0.009679	1.000000	-0.000374	0.000082	0.000121	-0.160351	-0.203532	0.965848	0.791188	-0.611568	0.002479	0.590178	0.764565	0.259097
11081		9.714753	-0.057379	2.457736	-0.017003	0.003590	0.000903	1.000000	-0.000213	0.000045	0.000011	-0.160542	-0.203555	0.965811	0.790923	-0.611910	0.002505	0.590480	0.764285	0.259234
11082		9.750834	0.018159	2.493668	-0.002861	-0.000905	0.005133	1.000000	-0.000036	-0.000011	0.000064	-0.160400	-0.203439	0.965860	0.790746	-0.612140	0.002384	0.590756	0.764132	0.259055
11083		9.740153	-0.032564	2.491512	0.000299	0.000203	0.011743	1.000000	0.000004	0.000003	0.000147	-0.160081	-0.203389	0.965923	0.790592	-0.612340	0.002086	0.591049	0.763985	0.258822
11084		9.756446	0.014955	2.485474	0.010978	-0.001362	0.008739	1.000000	0.000137	-0.000017	0.000109	-0.159749	-0.203374	0.965981	0.790734	-0.612157	0.001886	0.590948	0.764135	0.258607
11085		9.778762	0.089487	2.487472	0.005281	0.002897	0.003085	1.000000	0.000066	0.000036	0.000039	-0.159625	-0.203379	0.966000	0.790801	-0.612071	0.001810	0.590892	0.764203	0.258534
11086		9.729534	0.060185	2.450448	-0.010886	0.005093	-0.000378	1.000000	-0.000136	0.000064	-0.000005	-0.159605	-0.203379	0.966004	0.790596	-0.612336	0.001705	0.591172	0.763990	0.258523
11087		9.725356	0.008186	2.477939	-0.010241	0.004721	0.000770	1.000000	-0.000128	0.000059	0.000010	-0.159493	-0.203258	0.966048	0.790255	-0.612776	0.001541	0.591658	0.763670	0.258359
11088		9.735097	0.024290	2.488419	-0.006640	0.004947	0.002412	1.000000	-0.000083	0.000062	0.000030	-0.159487	-0.203307	0.966038	0.790140	-0.612925	0.001455	0.591813	0.763537	0.258394
11089		9.759663	0.027124	2.507751	-0.001216	0.007073	0.001363	1.000000	-0.000015	0.000088	0.000017	-0.159459	-0.203495	0.966003	0.790258	-0.612773	0.001363	0.591663	0.763609	0.258526
11090		9.745767	0.050201	2.492003	0.003592	0.012122	0.001468	1.000000	0.000045	0.000152	0.000018	-0.159623	-0.203720	0.965929	0.790362	-0.612638	0.001402	0.591479	0.763658	0.258804
11091		9.719114	0.061159	2.501899	0.002902	0.008819	0.003153	1.000000	0.000036	0.000110	0.000039	-0.159460	-0.203789	0.965941	0.790323	-0.612689	0.001207	0.591575	0.763598	0.258759
11092		9.722704	0.065281	2.460379	-0.014129	0.013790	0.000289	1.000000	-0.000177	0.000172	0.000004	-0.159679	-0.203970	0.965867	0.790107	-0.612968	0.001176	0.591806	0.763326	0.259036
11093		9.725920	0.002955	2.470550	-0.025130	0.016633	-0.008026	1.000000	-0.000314	0.000208	-0.000100	-0.159975	-0.204032	0.965805	0.789621	-0.613594	0.001167	0.592374	0.762806	0.259268
11094		9.733327	-0.060486	2.459141	-0.011339	0.012396	-0.005766	1.000000	-0.000142	0.000155	-0.000072	-0.160208	-0.204065	0.965759	0.789365	-0.613922	0.001225	0.592651	0.762533	0.259437
11095		9.749592	-0.038892	2.476870	0.000292	0.011782	-0.001002	1.000000	0.000004	0.000147	-0.000013	-0.160311	-0.204200	0.965713	0.789384	-0.613899	0.001231	0.592599	0.762516	0.259607
11096		9.737672	0.024019	2.552091	0.004370	0.009653	-0.004757	1.000000	0.000055	0.000121	-0.000059	-0.160476	-0.204196	0.965687	0.789366	-0.613922	0.001360	0.592578	0.762498	0.259705
11097		9.660003	0.102175	2.439665	0.010515	0.016102	-0.016811	1.000000	0.000131	0.000201	-0.000210	-0.161112	-0.204172	0.965586	0.789444	-0.613820	0.001930	0.592302	0.762587	0.260076
11098		9.775625	-0.000796	2.462003	-0.018770	0.011577	-0.018002	1.000000	-0.000235	0.000145	-0.000225	-0.161647	-0.204090	0.965514	0.789171	-0.614169	0.002300	0.592519	0.762328	0.260341
11099		9.802971	0.069451	2.480167	-0.024167	-0.002193	0.002788	1.000000	-0.000302	-0.000027	0.000035	-0.161402	-0.203969	0.965581	0.788761	-0.614697	0.001998	0.593132	0.761935	0.260096
11100		9.651232	0.087765	2.485284	-0.025181	0.007676	-0.007008	1.000000	-0.000315	0.000096	-0.000088	-0.161559	-0.203928	0.965563	0.788370	-0.615199	0.001980	0.593609	0.761541	0.260161
11101		9.650493	0.004625	2.498509	-0.028700	0.002958	-0.021163	1.000000	-0.000359	0.000037	-0.000265	-0.161997	-0.203584	0.965562	0.787862	-0.615847	0.002336	0.594163	0.761109	0.260162
11102		9.730363	-0.002076	2.422458	0.001305	0.006821	-0.013179	1.000000	0.000016	0.000085	-0.000165	-0.162341	-0.203436	0.965536	0.787842	-0.615871	0.002702	0.594096	0.761128	0.260257
11103		9.763322	0.059916	2.370755	-0.003103	-0.001260	-0.003806	1.000000	-0.000039	-0.000016	-0.000048	-0.162368	-0.203216	0.965577	0.787701	-0.616051	0.002803	0.594276	0.761041	0.260101
11104		9.744014	0.124365	2.484213	-0.049882	-0.015579	0.000052	1.000000	-0.000624	-0.000195	0.000001	-0.161985	-0.202805	0.965728	0.786932	-0.617035	0.002416	0.595399	0.760353	0.259544
11105		9.681114	0.057720	2.524049	-0.034118	-0.005540	-0.005598	1.000000	-0.000426	-0.000069	-0.000070	-0.162090	-0.202511	0.965772	0.786365	-0.617758	0.002443	0.596118	0.759845	0.259380
11106		9.717727	0.011431	2.529751	0.001694	-0.002866	-0.012929	1.000000	0.000021	-0.000036	-0.000162	-0.162309	-0.202129	0.965816	0.786270	-0.617877	0.002824	0.596184	0.759850	0.259214
11107		9.752934	0.047444	2.511492	-0.001406	0.003956	-0.000044	1.000000	-0.000018	0.000049	-0.000001	-0.162353	-0.202084	0.965818	0.786210	-0.617953	0.002863	0.596251	0.759800	0.259207
11108		9.689203	0.031601	2.464763	-0.004685	-0.002926	0.003617	1.000000	-0.000059	-0.000037	0.000045	-0.162135	-0.202012	0.965869	0.786166	-0.618010	0.002712	0.596369	0.759773	0.259015
11109		9.704147	0.070814	2.467198	0.005892	-0.009200	0.001585	1.000000	0.000074	-0.000115	0.000020	-0.161914	-0.201707	0.965970	0.786139	-0.618044	0.002716	0.596464	0.759826	0.258640
11110		9.733644	0.072386	2.462022	-0.002505	-0.005309	0.000168	1.000000	-0.000031	-0.000066	0.000002	-0.161868	-0.201504	0.966020	0.786083	-0.618115	0.002784	0.596550	0.759822	0.258452
11111		9.735837	0.028396	2.456183	-0.004133	-0.002885	0.003333	1.000000	-0.000052	-0.000036	0.000042	-0.161620	-0.201358	0.966092	0.785939	-0.618299	0.002613	0.596807	0.759712	0.258185
11112		9.744572	0.041524	2.451540	0.002215	-0.002448	0.003556	1.000000	0.000028	-0.000031	0.000044	-0.161331	-0.201337	0.966145	0.786088	-0.618110	0.002456	0.596689	0.759871	0.257989
11113		9.754318	0.032592	2.444298	-0.000459	-0.004292	0.007358	1.000000	-0.000006	-0.000054	0.000092	-0.161164	-0.201181	0.966205	0.785938	-0.618301	0.002354	0.596932	0.759756	0.257764
11114		9.737050	0.048864	2.469053	0.000346	-0.008037	0.009065	1.000000	0.000004	-0.000100	0.000113	-0.160771	-0.201103	0.966287	0.786026	-0.618190	0.002122	0.596922	0.759868	0.257459
11115		9.726474	0.051022	2.460661	0.002739	-0.003448	0.012597	1.000000	0.000034	-0.000043	0.000157	-0.160328	-0.201162	0.966348	0.786157	-0.618025	0.001780	0.596869	0.759986	0.257231
11116		9.719045	0.072859	2.433544	0.007255	-0.006244	0.012252	1.000000	0.000091	-0.000078	0.000153	-0.159801	-0.201097	0.966449	0.786241	-0.617919	0.001429	0.596899	0.760090	0.256855
11117		9.727511	0.059349	2.412338	-0.015406	-0.005068	0.009435	1.000000	-0.000193	-0.000063	0.000118	-0.159383	-0.200916	0.966556	0.785811	-0.618466	0.001019	0.597578	0.759692	0.256455
11118		9.734506	-0.024700	2.427845	-0.020335	-0.008235	0.008314	1.000000	-0.000254	-0.000103	0.000104	-0.158920	-0.200786	0.966659	0.785531	-0.618821	0.000606	0.598067	0.759437	0.256067
11119		9.752889	-0.028171	2.438444	-0.004935	-0.006916	0.008707	1.000000	-0.000062	-0.000086	0.000109	-0.158445	-0.200735	0.966747	0.785558	-0.618789	0.000264	0.598159	0.759478	0.255733
11120		9.789146	-0.031762	2.461721	0.001664	-0.006338	0.009474	1.000000	0.000021	-0.000079	0.000118	-0.158103	-0.200652	0.966821	0.785581	-0.618759	0.000049	0.598219	0.759524	0.255456
11121		9.781123	0.023500	2.498011	0.003587	-0.008868	0.005475	1.000000	0.000045	-0.000111	0.000068	-0.157868	-0.200399	0.966912	0.785536	-0.618816	0.000000	0.598340	0.759544	0.255112
11122		9.687604	0.088252	2.428386	0.004323	-0.001878	0.000977	1.000000	0.000054	-0.000023	0.000012	-0.157687	-0.200356	0.966950	0.785740	-0.618557	-0.000032	0.598120	0.759766	0.254966
11123		9.805513	-0.015225	2.460042	-0.001869	0.002096	-0.005764	1.000000	-0.000023	0.000026	-0.000072	-0.157840	-0.200253	0.966946	0.785753	-0.618540	0.000164	0.598062	0.759807	0.254980
11124		9.855525	0.051886	2.467469	-0.006908	-0.009568	0.003895	1.000000	-0.000086	-0.000120	0.000049	-0.157537	-0.200060	0.967036	0.785712	-0.618592	0.000024	0.598196	0.759816	0.254641
11125		9.669509	0.133866	2.433362	-0.001396	0.009393	0.010152	1.000000	-0.000017	0.000117	0.000127	-0.157407	-0.200298	0.967007	0.785725	-0.618576	-0.000229	0.598214	0.759766	0.254748
11126		9.635685	0.001530	2.453809	-0.035438	0.009835	-0.008509	1.000000	-0.000443	0.000123	-0.000106	-0.157653	-0.200249	0.966978	0.785165	-0.619287	-0.000236	0.598884	0.759199	0.254861
11127		9.752031	-0.084337	2.405944	-0.010942	0.011875	-0.005130	1.000000	-0.000137	0.000148	-0.000064	-0.157918	-0.200301	0.966924	0.784981	-0.619520	-0.000132	0.599054	0.758996	0.255066
11128		9.799104	-0.051089	2.410376	0.015973	0.007841	0.000982	1.000000	0.000200	0.000098	0.000012	-0.157903	-0.200407	0.966904	0.785310	-0.619103	-0.000072	0.598628	0.759308	0.255140
11129		9.820950	0.034890	2.476920	-0.004302	0.012378	0.002640	1.000000	-0.000054	0.000155	0.000033	-0.157897	-0.200556	0.966874	0.785205	-0.619236	-0.000217	0.598767	0.759160	0.255254
11130		9.731655	0.034486	2.454546	0.002163	0.017378	-0.006471	1.000000	0.000027	0.000217	-0.000081	-0.158223	-0.200679	0.966796	0.785197	-0.619246	-0.000035	0.598692	0.759119	0.255551
11131		9.697521	0.033801	2.398970	0.010109	0.016777	-0.013167	1.000000	0.000126	0.000210	-0.000165	-0.158706	-0.200694	0.966713	0.785289	-0.619129	0.000388	0.598442	0.759211	0.255862
11132		9.754775	0.039507	2.395574	-0.011941	0.011281	-0.007332	1.000000	-0.000149	0.000141	-0.000092	-0.158885	-0.200632	0.966697	0.784964	-0.619541	0.000433	0.598822	0.758891	0.255925
11133		9.711470	0.047935	2.428974	-0.012948	0.006850	-0.003886	1.000000	-0.000162	0.000086	-0.000049	-0.158928	-0.200616	0.966693	0.784781	-0.619773	0.000401	0.599050	0.758706	0.255939
11134		9.721919	0.036675	2.459889	-0.005414	0.001703	-0.004605	1.000000	-0.000068	0.000021	-0.000058	-0.158844	-0.200467	0.966738	0.784669	-0.619914	0.000380	0.599218	0.758630	0.255770
11135		9.732388	0.015299	2.429008	-0.002872	0.005532	-0.005205	1.000000	-0.000036	0.000069	-0.000065	-0.159023	-0.200380	0.966726	0.784583	-0.620024	0.000545	0.599284	0.758563	0.255813
11136		9.761630	0.031777	2.380898	-0.001711	0.002745	-0.002460	1.000000	-0.000021	0.000034	-0.000031	-0.158987	-0.200326	0.966743	0.784633	-0.619961	0.000571	0.599228	0.758629	0.255748
11137		9.735599	0.043588	2.388210	-0.005770	-0.003189	-0.004205	1.000000	-0.000072	-0.000040	-0.000053	-0.158816	-0.200069	0.966825	0.784489	-0.620143	0.000535	0.599463	0.758548	0.255440
11138		9.736812	0.022335	2.384652	-0.003258	-0.005747	-0.001482	1.000000	-0.000041	-0.000072	-0.000019	-0.158624	-0.199897	0.966892	0.784585	-0.620021	0.000532	0.599387	0.758693	0.255186
11139		9.750214	-0.007635	2.424101	0.007034	-0.005436	-0.001814	1.000000	0.000088	-0.000068	-0.000023	-0.158337	-0.199587	0.967003	0.784541	-0.620076	0.000478	0.599520	0.758730	0.254765
11140		9.759395	0.092268	2.407740	0.009968	-0.002127	-0.001812	1.000000	0.000125	-0.000027	-0.000023	-0.158190	-0.199445	0.967056	0.784758	-0.619802	0.000542	0.599275	0.758991	0.254563
11141		9.734914	0.107071	2.427864	-0.007972	-0.003356	-0.003064	1.000000	-0.000100	-0.000042	-0.000038	-0.158085	-0.199225	0.967119	0.784621	-0.619975	0.000540	0.599482	0.758907	0.254325
11142		9.734127	0.050511	2.417672	-0.017210	-0.007268	-0.000480	1.000000	-0.000215	-0.000091	-0.000006	-0.157867	-0.198949	0.967211	0.784320	-0.620356	0.000413	0.599933	0.758668	0.253974
11143		9.724554	0.032332	2.406563	-0.015158	-0.006350	0.002519	1.000000	-0.000189	-0.000079	0.000031	-0.157666	-0.198766	0.967281	0.784111	-0.620620	0.000279	0.600259	0.758500	0.253706
11144		9.735838	0.026753	2.412159	-0.008145	-0.005146	-0.001239	1.000000	-0.000102	-0.000064	-0.000015	-0.157556	-0.198595	0.967335	0.784090	-0.620648	0.000291	0.600316	0.758523	0.253503
11145		9.777664	0.033893	2.405356	-0.016247	-0.002675	-0.006737	1.000000	-0.000203	-0.000033	-0.000084	-0.157539	-0.198382	0.967381	0.783941	-0.620836	0.000350	0.600515	0.758424	0.253325
11146		9.786353	-0.019337	2.450773	-0.015168	-0.003736	-0.002175	1.000000	-0.000190	-0.000047	-0.000027	-0.157516	-0.198100	0.967443	0.783552	-0.621326	0.000349	0.601028	0.758097	0.253090
11147		9.703744	-0.018732	2.416027	-0.001168	-0.002460	-0.004558	1.000000	-0.000015	-0.000031	-0.000057	-0.157447	-0.197829	0.967509	0.783426	-0.621485	0.000414	0.601211	0.758037	0.252835
11148		9.747010	0.008009	2.378346	0.015974	0.006290	-0.014833	1.000000	0.000200	0.000079	-0.000185	-0.157747	-0.197681	0.967491	0.783764	-0.621059	0.000894	0.600692	0.758425	0.252905
11149		9.863520	0.053400	2.443003	-0.018702	-0.000464	-0.015031	1.000000	-0.000234	-0.000006	-0.000188	-0.157946	-0.197292	0.967538	0.783357	-0.621571	0.001134	0.601170	0.758106	0.252725
11150		9.738896	0.040374	2.437916	-0.010768	0.001926	0.001554	1.000000	-0.000135	0.000024	0.000019	-0.157783	-0.197258	0.967571	0.783244	-0.621713	0.000976	0.601359	0.757999	0.252597
11151		9.649423	0.000895	2.442823	-0.000053	0.008034	-0.005688	1.000000	-0.000001	0.000100	-0.000071	-0.157951	-0.197194	0.967557	0.783182	-0.621792	0.001128	0.601397	0.757951	0.252651
11152		9.715429	0.002314	2.394982	0.007113	0.005960	-0.004699	1.000000	0.000089	0.000075	-0.000059	-0.158081	-0.197121	0.967550	0.783262	-0.621690	0.001313	0.601257	0.758053	0.252675
11153		9.787066	0.015119	2.400787	0.023641	0.007314	0.002149	1.000000	0.000296	0.000091	0.000027	-0.158130	-0.197231	0.967520	0.783719	-0.621114	0.001474	0.600649	0.758497	0.252791
11154		9.805159	0.116604	2.441902	0.006452	0.002657	0.008169	1.000000	0.000081	0.000033	0.000102	-0.157983	-0.197364	0.967517	0.783986	-0.620777	0.001382	0.600339	0.758738	0.252803
11155		9.752683	0.058961	2.446446	0.000609	0.007755	0.010849	1.000000	0.000008	0.000097	0.000136	-0.157793	-0.197596	0.967501	0.784105	-0.620627	0.001130	0.600233	0.758801	0.252866
11156		9.680843	0.084081	2.415071	0.011020	0.014045	0.008633	1.000000	0.000138	0.000176	0.000108	-0.157876	-0.197885	0.967428	0.784287	-0.620397	0.001088	0.599974	0.758913	0.253144
11157		9.709658	0.038252	2.396459	0.004117	0.012247	0.005434	1.000000	0.000051	0.000153	0.000068	-0.157798	-0.198111	0.967394	0.784441	-0.620203	0.000945	0.599793	0.759013	0.253273
11158		9.753174	0.101963	2.415335	-0.005555	0.006484	0.013483	1.000000	-0.000069	0.000081	0.000169	-0.157559	-0.198362	0.967382	0.784487	-0.620145	0.000610	0.599796	0.758995	0.253322
11159		9.772907	-0.000011	2.428877	-0.019800	0.006377	0.018559	1.000000	-0.000248	0.000080	0.000232	-0.157233	-0.198685	0.967369	0.784331	-0.620343	0.000072	0.600086	0.758748	0.253373
11160		9.745896	0.052586	2.456523	-0.009123	0.008787	0.014142	1.000000	-0.000114	0.000110	0.000177	-0.156968	-0.198988	0.967349	0.784324	-0.620352	-0.000340	0.600165	0.758662	0.253446
11161		9.729174	0.068065	2.414632	-0.000377	0.014943	0.001588	1.000000	-0.000005	0.000187	0.000020	-0.157039	-0.199175	0.967299	0.784308	-0.620371	-0.000409	0.600166	0.758597	0.253637
11162		9.719518	0.036210	2.383307	-0.015901	0.014190	-0.003085	1.000000	-0.000199	0.000177	-0.000039	-0.157295	-0.199296	0.967233	0.784071	-0.620672	-0.000380	0.600410	0.758319	0.253891
11163		9.749318	-0.020351	2.423166	-0.019847	0.006446	0.000345	1.000000	-0.000248	0.000081	0.000004	-0.157280	-0.199332	0.967228	0.783834	-0.620970	-0.000515	0.600722	0.758065	0.253909
11164		9.752023	-0.008287	2.428402	-0.000760	0.003578	0.001112	1.000000	-0.000009	0.000045	0.000014	-0.157258	-0.199289	0.967240	0.783797	-0.621017	-0.000520	0.600777	0.758038	0.253862
11165		9.731178	0.075152	2.463436	-0.001564	0.006013	-0.003843	1.000000	-0.000020	0.000075	-0.000048	-0.157354	-0.199240	0.967235	0.783789	-0.621027	-0.000415	0.600761	0.758043	0.253883
11166		9.727100	0.091667	2.440649	-0.009543	0.006676	-0.004167	1.000000	-0.000119	0.000083	-0.000052	-0.157499	-0.199133	0.967233	0.783504	-0.621387	-0.000349	0.601095	0.757776	0.253889
11167		9.728296	0.024105	2.420736	-0.017029	0.002385	-0.005214	1.000000	-0.000213	0.000030	-0.000065	-0.157598	-0.199019	0.967241	0.783321	-0.621618	-0.000273	0.601308	0.757617	0.253861
11168		9.707975	0.044004	2.397844	-0.008249	0.001911	-0.004625	1.000000	-0.000103	0.000024	-0.000058	-0.157733	-0.198872	0.967249	0.783172	-0.621805	-0.000132	0.601466	0.757502	0.253830
11169		9.736989	0.063926	2.434076	-0.014257	0.003821	-0.007573	1.000000	-0.000178	0.000048	-0.000095	-0.157850	-0.198695	0.967266	0.782894	-0.622155	-0.000041	0.601798	0.757260	0.253764
11170		9.746884	0.028098	2.449267	-0.018571	0.006996	-0.005305	1.000000	-0.000232	0.000087	-0.000066	-0.157926	-0.198648	0.967263	0.782654	-0.622457	-0.000050	0.602090	0.757025	0.253775
11171		9.762958	0.024618	2.450098	-0.005453	0.007193	-0.001411	1.000000	-0.000068	0.000090	-0.000018	-0.157949	-0.198659	0.967257	0.782608	-0.622514	-0.000058	0.602143	0.756974	0.253798
11172		9.728271	0.028851	2.439702	-0.002860	0.002909	-0.000511	1.000000	-0.000036	0.000036	-0.000006	-0.157942	-0.198585	0.967274	0.782559	-0.622576	-0.000037	0.602209	0.756943	0.253736
11173		9.711789	0.030131	2.357862	0.005350	0.011661	-0.006253	1.000000	0.000067	0.000146	-0.000078	-0.158148	-0.198600	0.967237	0.782636	-0.622480	0.000153	0.602055	0.757018	0.253876
11174		9.842113	-0.025809	2.444467	-0.018053	0.008509	-0.005153	1.000000	-0.000226	0.000106	-0.000064	-0.158273	-0.198590	0.967218	0.782416	-0.622756	0.000168	0.602308	0.756794	0.253946
11175		9.839150	0.062355	2.469961	0.000718	0.005833	0.011852	1.000000	0.000009	0.000073	0.000148	-0.158009	-0.198783	0.967222	0.782522	-0.622622	-0.000126	0.602239	0.756853	0.253932
11176		9.679243	0.104102	2.451000	-0.008748	0.017413	0.003931	1.000000	-0.000109	0.000218	0.000049	-0.158028	-0.199051	0.967164	0.782414	-0.622759	-0.000328	0.602375	0.756671	0.254153
11177		9.637785	0.021473	2.462534	-0.018042	0.017679	-0.004771	1.000000	-0.000226	0.000221	-0.000060	-0.158285	-0.199199	0.967091	0.782151	-0.623089	-0.000327	0.602649	0.756359	0.254430
11178		9.709206	-0.031039	2.414248	0.012486	0.020218	0.006794	1.000000	0.000156	0.000253	0.000085	-0.158302	-0.199575	0.967011	0.782399	-0.622777	-0.000450	0.602322	0.756518	0.254735
11179		9.783053	0.043760	2.422377	0.006008	0.009854	0.021051	1.000000	0.000075	0.000123	0.000263	-0.157956	-0.199986	0.966983	0.782620	-0.622499	-0.000902	0.602126	0.756637	0.254840
11180		9.805980	0.056701	2.468242	-0.013998	0.009171	0.017172	1.000000	-0.000175	0.000115	0.000215	-0.157716	-0.200308	0.966955	0.782480	-0.622674	-0.001362	0.602371	0.756408	0.254943
11181		9.732560	0.088405	2.485488	-0.005735	0.017764	0.003058	1.000000	-0.000072	0.000222	0.000038	-0.157870	-0.200578	0.966874	0.782415	-0.622756	-0.001439	0.602415	0.756269	0.255250
11182		9.693817	-0.016122	2.423893	-0.004216	0.022485	0.000723	1.000000	-0.000053	0.000281	0.000009	-0.158161	-0.200893	0.966761	0.782337	-0.622854	-0.001440	0.602440	0.756105	0.255677
11183		9.704036	-0.014511	2.412258	0.005057	0.011736	0.005789	1.000000	0.000063	0.000147	0.000072	-0.158088	-0.201095	0.966731	0.782471	-0.622685	-0.001572	0.602285	0.756191	0.255790
11184		9.723798	0.042287	2.449461	0.005291	0.004019	0.009203	1.000000	0.000066	0.000050	0.000115	-0.157881	-0.201234	0.966736	0.782695	-0.622403	-0.001733	0.602048	0.756386	0.255771
11185		9.746377	0.087826	2.473987	0.003508	0.005879	0.002055	1.000000	0.000044	0.000073	0.000026	-0.157856	-0.201261	0.966734	0.782770	-0.622309	-0.001739	0.601958	0.756456	0.255776
11186		9.743004	0.074986	2.471388	-0.009136	0.006152	-0.003584	1.000000	-0.000114	0.000077	-0.000045	-0.157946	-0.201205	0.966731	0.782630	-0.622484	-0.001690	0.602115	0.756327	0.255788
11187		9.723436	-0.004490	2.434588	-0.004486	0.002705	-0.003862	1.000000	-0.000056	0.000034	-0.000048	-0.157989	-0.201094	0.966747	0.782598	-0.622525	-0.001598	0.602146	0.756323	0.255728
11188		9.731059	0.031790	2.433620	-0.007423	-0.000601	-0.003883	1.000000	-0.000093	-0.000008	-0.000049	-0.157946	-0.200917	0.966791	0.782521	-0.622622	-0.001550	0.602257	0.756290	0.255562
11189		9.715263	0.024767	2.492781	-0.009665	-0.005833	-0.007389	1.000000	-0.000121	-0.000073	-0.000092	-0.157941	-0.200603	0.966857	0.782430	-0.622737	-0.001391	0.602377	0.756278	0.255313
11190		9.748334	0.071974	2.485896	0.000836	-0.002590	-0.003431	1.000000	0.000010	-0.000032	-0.000043	-0.157943	-0.200373	0.966905	0.782404	-0.622770	-0.001252	0.602410	0.756312	0.255135
11191		9.743175	0.078863	2.470591	-0.008557	-0.000516	-0.006131	1.000000	-0.000107	-0.000006	-0.000077	-0.157982	-0.200140	0.966947	0.782233	-0.622986	-0.001144	0.602623	0.756196	0.254976
11192		9.712845	0.057219	2.421358	-0.022595	-0.000332	-0.003371	1.000000	-0.000282	-0.000004	-0.000042	-0.157893	-0.199917	0.967007	0.781784	-0.623548	-0.001261	0.603227	0.755792	0.254746
11193		9.707883	0.026758	2.449070	-0.024265	-0.002995	-0.004844	1.000000	-0.000303	-0.000037	-0.000061	-0.157935	-0.199672	0.967051	0.781406	-0.624022	-0.001229	0.603706	0.755465	0.254580
11194		9.715208	-0.022539	2.458113	-0.015469	-0.002235	-0.005169	1.000000	-0.000193	-0.000028	-0.000065	-0.157926	-0.199429	0.967103	0.781157	-0.624334	-0.001184	0.604031	0.755272	0.254384
11195		9.747322	-0.007055	2.458853	-0.007130	0.000697	-0.008464	1.000000	-0.000089	0.000009	-0.000106	-0.157971	-0.199236	0.967135	0.781163	-0.624326	-0.001021	0.604011	0.755329	0.254261
11196		9.778983	0.001194	2.482687	-0.005326	0.000059	-0.002253	1.000000	-0.000067	0.000001	-0.000028	-0.157889	-0.199070	0.967182	0.781061	-0.624454	-0.001023	0.604165	0.755267	0.254081
11197		9.756169	0.032774	2.471579	-0.008927	0.002531	-0.004413	1.000000	-0.000112	0.000032	-0.000055	-0.157921	-0.198924	0.967207	0.780902	-0.624653	-0.000969	0.604362	0.755141	0.253986
11198		9.653372	0.054375	2.414229	0.007971	0.003385	-0.008087	1.000000	0.000100	0.000042	-0.000101	-0.157995	-0.198806	0.967220	0.781193	-0.624289	-0.000710	0.603965	0.755473	0.253940
11199		9.794717	0.037438	2.441080	-0.021722	0.006154	-0.010602	1.000000	-0.000272	0.000077	-0.000133	-0.158212	-0.198657	0.967215	0.780895	-0.624662	-0.000565	0.604295	0.755204	0.253960
11200		9.821738	0.021499	2.470071	-0.022744	-0.006255	0.002681	1.000000	-0.000284	-0.000078	0.000034	-0.157963	-0.198473	0.967293	0.780613	-0.625014	-0.000765	0.604724	0.754961	0.253660
11201		9.688158	0.099202	2.458983	0.000568	0.002572	0.002040	1.000000	0.000007	0.000032	0.000025	-0.157872	-0.198460	0.967311	0.780717	-0.624885	-0.000786	0.604614	0.755072	0.253593
11202		9.618212	0.068740	2.465774	-0.025208	0.004095	-0.007089	1.000000	-0.000315	0.000051	-0.000089	-0.158077	-0.198375	0.967295	0.780490	-0.625168	-0.000662	0.604853	0.754859	0.253654
11203		9.712418	-0.009839	2.389431	-0.010026	0.007669	-0.002017	1.000000	-0.000125	0.000096	-0.000025	-0.158125	-0.198385	0.967285	0.780395	-0.625286	-0.000669	0.604963	0.754758	0.253692
11204		9.761244	0.024057	2.405935	-0.004674	-0.005768	0.011072	1.000000	-0.000058	-0.000072	0.000138	-0.157812	-0.198348	0.967343	0.780409	-0.625268	-0.000892	0.605026	0.754783	0.253468
11205		9.796538	0.064879	2.448755	-0.019789	-0.004469	0.013455	1.000000	-0.000247	-0.000056	0.000168	-0.157427	-0.198386	0.967398	0.780257	-0.625458	-0.001291	0.605323	0.754616	0.253256
11206		9.728543	0.058721	2.483884	-0.030667	0.000773	-0.000969	1.000000	-0.000383	0.000010	-0.000012	-0.157330	-0.198318	0.967428	0.779966	-0.625820	-0.001447	0.605723	0.754333	0.253141
11207		9.730682	-0.055829	2.443822	-0.028008	0.002821	-0.007559	1.000000	-0.000350	0.000035	-0.000094	-0.157371	-0.198152	0.967456	0.779605	-0.626270	-0.001457	0.606177	0.754004	0.253037
11208		9.748477	-0.073231	2.417768	-0.003616	-0.000052	-0.004483	1.000000	-0.000045	-0.000001	-0.000056	-0.157470	-0.197981	0.967474	0.779573	-0.626310	-0.001280	0.606192	0.754016	0.252966
11209		9.765262	0.000580	2.428390	-0.002714	-0.007041	0.006128	1.000000	-0.000034	-0.000088	0.000077	-0.157066	-0.197868	0.967563	0.779726	-0.626119	-0.001468	0.606100	0.754204	0.252624
11210		9.727327	0.046934	2.491422	-0.009612	-0.007424	-0.000855	1.000000	-0.000120	-0.000093	-0.000011	-0.156930	-0.197617	0.967637	0.779644	-0.626221	-0.001450	0.606241	0.754184	0.252344
11211		9.727608	0.030830	2.451498	0.000101	-0.000367	-0.009767	1.000000	0.000001	-0.000005	-0.000122	-0.157116	-0.197338	0.967663	0.779592	-0.626287	-0.001141	0.606260	0.754203	0.252243
11212		9.728539	-0.006162	2.410141	0.006292	0.003340	-0.003039	1.000000	0.000079	0.000042	-0.000038	-0.157185	-0.197219	0.967676	0.779629	-0.626240	-0.000993	0.606194	0.754273	0.252193
11213		9.737717	0.040014	2.400349	-0.010510	0.000740	-0.001201	1.000000	-0.000131	0.000009	-0.000015	-0.157188	-0.197078	0.967705	0.779411	-0.626512	-0.000989	0.606474	0.754084	0.252085
11214		9.743002	0.033528	2.415134	-0.012784	-0.001722	-0.001019	1.000000	-0.000160	-0.000022	-0.000013	-0.157111	-0.196916	0.967750	0.779238	-0.626727	-0.001018	0.606716	0.753948	0.251910
11215		9.769567	0.010461	2.467177	-0.000137	0.004600	-0.001469	1.000000	-0.000002	0.000057	-0.000018	-0.157045	-0.196865	0.967771	0.779289	-0.626664	-0.001018	0.606668	0.754014	0.251830
11216		9.747808	0.027592	2.431828	0.007957	0.007292	0.001704	1.000000	0.000099	0.000091	0.000021	-0.157086	-0.196922	0.967753	0.779451	-0.626462	-0.000954	0.606449	0.754166	0.251899
11217		9.704172	0.070569	2.421675	-0.006180	0.006629	0.003957	1.000000	-0.000077	0.000083	0.000049	-0.157078	-0.196974	0.967744	0.779325	-0.626619	-0.001047	0.606613	0.754023	0.251935
11218		9.693990	0.051894	2.413076	-0.017406	0.002822	0.005337	1.000000	-0.000218	0.000035	0.000067	-0.156949	-0.197009	0.967757	0.779147	-0.626840	-0.001247	0.606874	0.753830	0.251881
11219		9.740985	-0.002765	2.427006	-0.014014	0.002667	0.005077	1.000000	-0.000175	0.000033	0.000063	-0.156862	-0.197005	0.967772	0.778907	-0.627137	-0.001414	0.607205	0.753583	0.251822
11220		9.785630	-0.037823	2.430479	-0.005290	0.005100	0.002398	1.000000	-0.000066	0.000064	0.000030	-0.156839	-0.197023	0.967772	0.778855	-0.627202	-0.001466	0.607278	0.753524	0.251822
11221		9.767824	-0.013154	2.435381	0.001655	0.005361	0.000998	1.000000	0.000021	0.000067	0.000012	-0.156903	-0.197048	0.967757	0.778955	-0.627078	-0.001389	0.607133	0.753621	0.251882
11222		9.759012	-0.027407	2.439862	0.004241	0.001084	0.001889	1.000000	0.000053	0.000014	0.000024	-0.156793	-0.196968	0.967791	0.779006	-0.627015	-0.001404	0.607097	0.753694	0.251751
11223		9.719111	0.036970	2.409776	0.015593	0.001703	-0.001763	1.000000	0.000195	0.000021	-0.000022	-0.156777	-0.196887	0.967810	0.779357	-0.626579	-0.001219	0.606650	0.754078	0.251678
11224		9.740369	0.065552	2.382287	0.006841	0.008732	-0.008479	1.000000	0.000086	0.000109	-0.000106	-0.156979	-0.196800	0.967795	0.779450	-0.626464	-0.000962	0.606478	0.754197	0.251737
11225		9.840244	0.004108	2.457322	-0.020789	0.000390	-0.000931	1.000000	-0.000260	0.000005	-0.000012	-0.156915	-0.196683	0.967829	0.779179	-0.626800	-0.001050	0.606842	0.753948	0.251605
11226		9.761699	0.088656	2.475360	-0.004231	-0.001329	0.012121	1.000000	-0.000053	-0.000017	0.000152	-0.156517	-0.196764	0.967877	0.779318	-0.626627	-0.001365	0.606767	0.754071	0.251420
11227		9.642230	0.127405	2.458504	-0.015223	0.012340	0.001818	1.000000	-0.000190	0.000154	0.000023	-0.156534	-0.196894	0.967848	0.779094	-0.626905	-0.001528	0.607049	0.753806	0.251531
11228		9.704137	-0.002703	2.425377	-0.033454	0.013980	-0.006202	1.000000	-0.000418	0.000175	-0.000078	-0.156696	-0.196937	0.967813	0.778607	-0.627510	-0.001628	0.607633	0.753291	0.251665
11229		9.792282	-0.066446	2.397216	-0.008735	0.010711	0.005880	1.000000	-0.000109	0.000134	0.000073	-0.156583	-0.197129	0.967792	0.778604	-0.627513	-0.001844	0.607665	0.753238	0.251744
11230		9.786767	-0.022061	2.439498	-0.002446	0.004642	0.016431	1.000000	-0.000031	0.000058	0.000205	-0.156261	-0.197353	0.967799	0.778641	-0.627465	-0.002233	0.607701	0.753219	0.251716
11231		9.762299	0.061494	2.511330	-0.019964	0.013539	0.005345	1.000000	-0.000250	0.000169	0.000067	-0.156220	-0.197586	0.967758	0.778441	-0.627713	-0.002499	0.607968	0.752952	0.251871
11232		9.706815	0.007253	2.467836	-0.016525	0.021328	-0.008936	1.000000	-0.000207	0.000267	-0.000112	-0.156671	-0.197756	0.967650	0.778244	-0.627958	-0.002329	0.608104	0.752703	0.252285
11233		9.712025	-0.052828	2.406923	0.002358	0.020661	-0.007690	1.000000	0.000029	0.000258	-0.000096	-0.157077	-0.197876	0.967560	0.778165	-0.628056	-0.002113	0.608100	0.752589	0.252633
11234		9.738043	0.045798	2.409454	-0.011978	0.008902	0.002918	1.000000	-0.000150	0.000111	0.000036	-0.157016	-0.197991	0.967546	0.778100	-0.628137	-0.002265	0.608200	0.752492	0.252684
11235		9.737361	0.025191	2.493344	-0.019773	0.008818	-0.001590	1.000000	-0.000247	0.000110	-0.000020	-0.157045	-0.198045	0.967530	0.777937	-0.628339	-0.002344	0.608401	0.752309	0.252744
11236		9.732337	0.026840	2.517056	-0.013960	0.010595	-0.008970	1.000000	-0.000174	0.000132	-0.000112	-0.157327	-0.197998	0.967494	0.777734	-0.628589	-0.002171	0.608586	0.752112	0.252884
11237		9.737106	-0.011373	2.457116	-0.000373	0.016444	-0.009058	1.000000	-0.000005	0.000206	-0.000113	-0.157663	-0.198046	0.967430	0.777714	-0.628616	-0.001941	0.608526	0.752077	0.253132
11238		9.727450	-0.011123	2.404777	0.001072	0.008332	-0.009008	1.000000	0.000013	0.000104	-0.000113	-0.157918	-0.197942	0.967409	0.777693	-0.628642	-0.001677	0.608486	0.752083	0.253212
11239		9.720170	0.027983	2.456036	-0.014531	0.004092	-0.009615	1.000000	-0.000182	0.000051	-0.000120	-0.158111	-0.197784	0.967410	0.777553	-0.628816	-0.001478	0.608615	0.751979	0.253210
11240		9.748039	0.016347	2.499478	-0.005824	0.003889	-0.007595	1.000000	-0.000073	0.000049	-0.000095	-0.158218	-0.197641	0.967422	0.777530	-0.628845	-0.001309	0.608617	0.751992	0.253167
11241		9.724757	0.024917	2.473246	0.000194	0.007151	-0.006965	1.000000	0.000002	0.000089	-0.000087	-0.158338	-0.197598	0.967411	0.777705	-0.628628	-0.001112	0.608362	0.752184	0.253209
11242		9.712940	0.060130	2.448056	-0.002070	0.007204	-0.004463	1.000000	-0.000026	0.000090	-0.000056	-0.158445	-0.197553	0.967403	0.777700	-0.628635	-0.000999	0.608340	0.752191	0.253241
11243		9.699937	0.055118	2.451966	-0.017943	0.006800	-0.002845	1.000000	-0.000224	0.000085	-0.000036	-0.158512	-0.197515	0.967399	0.777430	-0.628969	-0.001032	0.608668	0.751922	0.253253
11244		9.732418	-0.013237	2.478110	-0.022094	0.005285	-0.003317	1.000000	-0.000276	0.000066	-0.000041	-0.158580	-0.197472	0.967397	0.777188	-0.629268	-0.001050	0.608959	0.751683	0.253263
11245		9.728008	-0.028704	2.461336	-0.001140	0.002796	-0.002731	1.000000	-0.000014	0.000035	-0.000034	-0.158655	-0.197348	0.967410	0.777099	-0.629378	-0.000947	0.609054	0.751623	0.253213
11246		9.746183	0.002898	2.468748	0.004876	0.006060	-0.002097	1.000000	0.000061	0.000076	-0.000026	-0.158747	-0.197300	0.967405	0.777128	-0.629342	-0.000829	0.608993	0.751665	0.253233
11247		9.740827	0.033818	2.471730	-0.011958	0.006313	-0.003616	1.000000	-0.000149	0.000079	-0.000045	-0.158817	-0.197243	0.967405	0.776956	-0.629555	-0.000808	0.609194	0.751503	0.253233
11248		9.720468	-0.006663	2.475395	0.003368	0.000042	-0.003061	1.000000	0.000042	0.000001	-0.000038	-0.158802	-0.197095	0.967438	0.777065	-0.629420	-0.000679	0.609059	0.751654	0.253109
11249		9.690470	0.034876	2.400274	0.014756	0.005857	-0.009016	1.000000	0.000184	0.000073	-0.000113	-0.159096	-0.196963	0.967416	0.777277	-0.629159	-0.000268	0.608711	0.751907	0.253192
11250		9.848560	0.002974	2.485399	-0.012066	-0.000806	-0.012048	1.000000	-0.000151	-0.000010	-0.000151	-0.159177	-0.196649	0.967467	0.777121	-0.629352	-0.000063	0.608889	0.751828	0.252999
11251		9.760882	0.088238	2.448341	-0.000953	0.001757	0.002943	1.000000	-0.000012	0.000022	0.000037	-0.159134	-0.196615	0.967481	0.777116	-0.629357	-0.000078	0.608906	0.751833	0.252945
11252		9.621379	0.052140	2.476156	-0.000155	0.006202	-0.008014	1.000000	-0.000002	0.000078	-0.000100	-0.159313	-0.196515	0.967472	0.777186	-0.629271	0.000160	0.608771	0.751931	0.252979
11253		9.681793	0.022262	2.443104	0.002945	0.004870	-0.010695	1.000000	0.000037	0.000061	-0.000134	-0.159534	-0.196334	0.967472	0.777241	-0.629202	0.000478	0.608642	0.752036	0.252978
11254		9.748263	0.042251	2.434832	0.017088	0.005248	-0.003077	1.000000	0.000214	0.000066	-0.000038	-0.159519	-0.196214	0.967499	0.777377	-0.629034	0.000600	0.608472	0.752207	0.252875
11255		9.760863	0.072435	2.449500	0.008867	-0.001042	0.004891	1.000000	0.000111	-0.000013	0.000061	-0.159279	-0.196138	0.967554	0.777523	-0.628855	0.000517	0.608349	0.752377	0.252665
11256		9.756949	0.104968	2.464917	-0.001356	0.004979	0.001861	1.000000	-0.000017	0.000062	0.000023	-0.159305	-0.196136	0.967550	0.777472	-0.628918	0.000519	0.608407	0.752325	0.252680
11257		9.690148	0.070483	2.436772	-0.017354	0.006778	-0.007331	1.000000	-0.000217	0.000085	-0.000092	-0.159415	-0.196048	0.967550	0.777285	-0.629149	0.000587	0.608618	0.752155	0.252681
11258		9.735543	-0.031442	2.405001	-0.003841	0.002642	-0.012535	1.000000	-0.000048	0.000033	-0.000157	-0.159548	-0.195782	0.967581	0.777232	-0.629213	0.000844	0.608650	0.752170	0.252558
11259		9.742223	0.051854	2.423367	0.006141	-0.003840	-0.000236	1.000000	0.000077	-0.000048	-0.000003	-0.159471	-0.195604	0.967630	0.777367	-0.629047	0.000954	0.608498	0.752356	0.252371
11260		9.722661	0.059498	2.457983	-0.004135	-0.004216	0.000005	1.000000	-0.000052	-0.000053	0.000000	-0.159353	-0.195409	0.967689	0.777319	-0.629105	0.000967	0.608589	0.752358	0.252145
11261		9.732728	0.077158	2.466812	-0.012314	-0.004890	-0.011194	1.000000	-0.000154	-0.000061	-0.000140	-0.159432	-0.195049	0.967749	0.777186	-0.629270	0.001209	0.608739	0.752313	0.251915
11262		9.740098	0.042826	2.415859	0.003619	-0.004707	-0.014184	1.000000	0.000045	-0.000059	-0.000177	-0.159537	-0.194633	0.967815	0.777261	-0.629177	0.001595	0.608616	0.752499	0.251658
11263		9.728129	0.065040	2.432524	0.002079	-0.010676	-0.010955	1.000000	0.000026	-0.000133	-0.000137	-0.159474	-0.194139	0.967925	0.777281	-0.629150	0.001874	0.608606	0.752649	0.251233
11264		9.739592	0.038400	2.420179	-0.010020	-0.014282	-0.011326	1.000000	-0.000125	-0.000179	-0.000142	-0.159388	-0.193577	0.968051	0.777123	-0.629345	0.002105	0.608830	0.752631	0.250743
11265		9.738906	0.055088	2.442240	0.002687	-0.014801	-0.011211	1.000000	0.000034	-0.000185	-0.000140	-0.159246	-0.193009	0.968188	0.777186	-0.629266	0.002386	0.608788	0.752843	0.250212
11266		9.710309	0.133826	2.454707	0.010965	-0.012995	-0.009336	1.000000	0.000137	-0.000162	-0.000117	-0.159039	-0.192465	0.968331	0.777289	-0.629139	0.002614	0.608711	0.753088	0.249658
11267		9.714233	0.132444	2.416955	-0.010425	-0.011071	-0.012402	1.000000	-0.000130	-0.000138	-0.000155	-0.159057	-0.191924	0.968435	0.777031	-0.629455	0.002875	0.609035	0.752961	0.249250
11268		9.725138	0.073345	2.410884	-0.025030	-0.014782	-0.010814	1.000000	-0.000313	-0.000185	-0.000135	-0.158991	-0.191361	0.968557	0.776630	-0.629950	0.003024	0.609564	0.752691	0.248773
11269		9.738569	0.019187	2.431593	-0.024988	-0.012324	-0.012676	1.000000	-0.000312	-0.000154	-0.000158	-0.158967	-0.190845	0.968663	0.776331	-0.630317	0.003219	0.609950	0.752515	0.248359
11270		9.724395	0.034456	2.420370	-0.002633	-0.010965	-0.007894	1.000000	-0.000033	-0.000137	-0.000099	-0.158879	-0.190401	0.968765	0.776295	-0.630361	0.003423	0.610020	0.752591	0.247959
11271		9.757445	0.082004	2.413160	-0.013083	-0.006711	-0.004901	1.000000	-0.000164	-0.000084	-0.000061	-0.158782	-0.190089	0.968842	0.776136	-0.630556	0.003483	0.610247	0.752506	0.247656
11272		9.789886	0.012332	2.422219	-0.014274	-0.008899	-0.008109	1.000000	-0.000178	-0.000111	-0.000101	-0.158692	-0.189681	0.968937	0.775943	-0.630793	0.003598	0.610516	0.752410	0.247283
11273		9.737111	0.081795	2.453815	0.014059	-0.010508	-0.006444	1.000000	0.000176	-0.000131	-0.000081	-0.158559	-0.189257	0.969041	0.776144	-0.630544	0.003849	0.610294	0.752726	0.246869
11274		9.706615	0.092321	2.383379	0.013054	0.002006	-0.009597	1.000000	0.000163	0.000025	-0.000120	-0.158710	-0.189014	0.969064	0.776282	-0.630372	0.004184	0.610080	0.752931	0.246775
11275		9.847846	0.019419	2.398337	-0.017060	-0.009094	-0.002506	1.000000	-0.000213	-0.000114	-0.000031	-0.158552	-0.188705	0.969150	0.776089	-0.630609	0.004181	0.610366	0.752810	0.246436
11276		9.762693	0.131283	2.403547	-0.001728	-0.002695	0.013904	1.000000	-0.000022	-0.000034	0.000174	-0.158175	-0.188746	0.969204	0.776106	-0.630591	0.003858	0.610443	0.752815	0.246231
11277		9.629472	0.117827	2.439339	-0.013160	0.002676	-0.003059	1.000000	-0.000164	0.000033	-0.000038	-0.158229	-0.188639	0.969216	0.775925	-0.630813	0.003897	0.610659	0.752655	0.246182
11278		9.752852	0.051773	2.420773	-0.018554	0.005651	-0.004422	1.000000	-0.000232	0.000071	-0.000055	-0.158344	-0.188538	0.969216	0.775573	-0.631246	0.003914	0.611076	0.752318	0.246179
11279		9.812580	-0.036791	2.377609	0.005303	0.007697	0.006471	1.000000	0.000066	0.000096	0.000081	-0.158221	-0.188690	0.969207	0.775796	-0.630972	0.003806	0.610824	0.752509	0.246218
11280		9.815072	0.015204	2.438420	0.008580	0.000165	0.011791	1.000000	0.000107	0.000002	0.000147	-0.157886	-0.188793	0.969242	0.776115	-0.630581	0.003599	0.610506	0.752811	0.246085
11281		9.770036	0.095627	2.469787	0.017069	0.007669	0.006253	1.000000	0.000213	0.000096	0.000078	-0.157778	-0.188929	0.969233	0.776467	-0.630148	0.003566	0.610087	0.753139	0.246121
11282		9.680703	0.124094	2.425259	0.016959	0.012215	0.000604	1.000000	0.000212	0.000153	0.000008	-0.157906	-0.189039	0.969190	0.776690	-0.629872	0.003687	0.609769	0.753343	0.246285
11283		9.743949	0.028303	2.385409	0.005169	0.016364	-0.003402	1.000000	0.000065	0.000205	-0.000043	-0.158139	-0.189190	0.969123	0.776822	-0.629709	0.003830	0.609541	0.753441	0.246548
11284		9.805819	0.096385	2.432562	0.012266	0.005287	0.005562	1.000000	0.000153	0.000066	0.000070	-0.158079	-0.189252	0.969121	0.777000	-0.629489	0.003813	0.609330	0.753609	0.246557
11285		9.719477	0.116834	2.473299	0.012394	0.009839	0.007469	1.000000	0.000155	0.000123	0.000093	-0.158024	-0.189445	0.969092	0.777250	-0.629180	0.003745	0.609024	0.753819	0.246671
11286		9.693141	0.159027	2.477052	0.008243	0.013666	0.001846	1.000000	0.000103	0.000171	0.000023	-0.158170	-0.189653	0.969027	0.777493	-0.628880	0.003826	0.608676	0.754017	0.246924
11287		9.747967	0.091944	2.376270	0.000485	0.019817	0.001069	1.000000	0.000006	0.000248	0.000013	-0.158362	-0.189945	0.968939	0.777594	-0.628755	0.003831	0.608498	0.754048	0.247271
11288		9.763536	0.087929	2.379461	-0.001397	0.012895	0.003244	1.000000	-0.000017	0.000161	0.000041	-0.158428	-0.190135	0.968891	0.777639	-0.628700	0.003779	0.608423	0.754046	0.247460
11289		9.756659	0.078304	2.413042	-0.015679	0.011735	-0.000680	1.000000	-0.000196	0.000147	-0.000008	-0.158524	-0.190226	0.968857	0.777425	-0.628965	0.003711	0.608672	0.753802	0.247592
11290		9.762764	0.045156	2.464915	-0.007543	0.018141	-0.000258	1.000000	-0.000094	0.000227	-0.000003	-0.158724	-0.190480	0.968774	0.777439	-0.628948	0.003712	0.608602	0.753752	0.247916
11291		9.735916	0.063387	2.453934	0.003223	0.018817	0.000604	1.000000	0.000040	0.000235	0.000008	-0.158873	-0.190718	0.968703	0.777512	-0.628857	0.003707	0.608469	0.753768	0.248194
11292		9.690387	0.104158	2.432535	-0.008771	0.013491	-0.001609	1.000000	-0.000110	0.000169	-0.000020	-0.159072	-0.190844	0.968646	0.777414	-0.628979	0.003746	0.608543	0.753634	0.248418
11293		9.706240	0.100036	2.434523	-0.013432	0.009033	0.001482	1.000000	-0.000168	0.000113	0.000019	-0.159126	-0.190937	0.968619	0.777273	-0.629153	0.003670	0.608709	0.753465	0.248525
11294		9.726370	0.111255	2.453456	-0.013127	0.006423	-0.001685	1.000000	-0.000164	0.000080	-0.000021	-0.159160	-0.190938	0.968613	0.777172	-0.629278	0.003657	0.608828	0.753361	0.248548
11295		9.733779	0.068748	2.441796	-0.012715	0.009645	0.000322	1.000000	-0.000159	0.000121	0.000004	-0.159275	-0.191010	0.968580	0.776973	-0.629523	0.003620	0.609052	0.753137	0.248677
11296		9.765115	0.033754	2.412356	-0.005959	0.006719	0.004505	1.000000	-0.000074	0.000084	0.000056	-0.159165	-0.191100	0.968580	0.776980	-0.629516	0.003477	0.609072	0.753120	0.248678
11297		9.754697	0.080970	2.475796	-0.008941	0.005055	0.002083	1.000000	-0.000112	0.000063	0.000026	-0.159163	-0.191126	0.968575	0.776894	-0.629623	0.003423	0.609183	0.753025	0.248697
11298		9.714049	0.075614	2.495053	0.001777	0.000761	0.002478	1.000000	0.000022	0.000010	0.000031	-0.159043	-0.191065	0.968607	0.776966	-0.629534	0.003396	0.609122	0.753114	0.248574
11299		9.676946	0.087330	2.398710	0.012208	0.012285	-0.001918	1.000000	0.000153	0.000154	-0.000024	-0.159206	-0.191169	0.968560	0.777213	-0.629227	0.003560	0.608764	0.753344	0.248756
11300		9.812162	0.044524	2.418933	-0.008690	0.005526	-0.007189	1.000000	-0.000109	0.000069	-0.000090	-0.159396	-0.191046	0.968553	0.777054	-0.629423	0.003727	0.608917	0.753212	0.248781
11301		9.812307	0.092509	2.451696	-0.004587	-0.006304	0.008260	1.000000	-0.000057	-0.000079	0.000103	-0.159042	-0.190935	0.968633	0.777033	-0.629450	0.003507	0.609036	0.753218	0.248472
11302		9.623589	0.148778	2.470785	-0.000957	0.006773	0.007618	1.000000	-0.000012	0.000085	0.000095	-0.158903	-0.191080	0.968627	0.777128	-0.629334	0.003339	0.608952	0.753277	0.248496
11303		9.633816	0.094711	2.446951	-0.019570	0.009252	-0.006706	1.000000	-0.000245	0.000116	-0.000084	-0.159041	-0.191043	0.968612	0.776895	-0.629620	0.003380	0.609212	0.753048	0.248555
11304		9.772203	-0.001492	2.399769	-0.004806	0.010695	-0.001654	1.000000	-0.000060	0.000134	-0.000021	-0.159121	-0.191138	0.968580	0.776973	-0.629525	0.003414	0.609092	0.753104	0.248679
11305		9.797045	0.032079	2.413295	-0.005442	0.000179	0.010298	1.000000	-0.000068	0.000002	0.000129	-0.158844	-0.191198	0.968613	0.776989	-0.629506	0.003158	0.609144	0.753104	0.248552
11306		9.777686	0.092605	2.459610	-0.002966	0.004254	0.011143	1.000000	-0.000037	0.000053	0.000139	-0.158731	-0.191359	0.968600	0.776993	-0.629503	0.002965	0.609169	0.753066	0.248606
11307		9.752203	0.141168	2.439706	0.004322	0.011039	0.002876	1.000000	0.000054	0.000138	0.000036	-0.158708	-0.191535	0.968569	0.777254	-0.629180	0.002939	0.608841	0.753291	0.248727
11308		9.682418	0.129379	2.365757	-0.019835	0.011477	0.002080	1.000000	-0.000248	0.000143	0.000026	-0.158746	-0.191680	0.968534	0.777036	-0.629449	0.002786	0.609109	0.753029	0.248865
11309		9.746173	0.017743	2.383644	-0.035120	0.005670	0.004323	1.000000	-0.000439	0.000071	0.000054	-0.158649	-0.191781	0.968530	0.776689	-0.629879	0.002501	0.609577	0.752644	0.248884
11310		9.784808	-0.004489	2.433839	-0.030157	-0.000872	0.013509	1.000000	-0.000377	-0.000011	0.000169	-0.158332	-0.191895	0.968559	0.776383	-0.630259	0.002048	0.610050	0.752297	0.248774
11311		9.755144	0.006348	2.476060	-0.010134	0.002526	0.008685	1.000000	-0.000127	0.000032	0.000109	-0.158123	-0.191956	0.968581	0.776268	-0.630400	0.001793	0.610250	0.752162	0.248690
11312		9.750324	0.042975	2.456395	0.005365	0.008860	0.001375	1.000000	0.000067	0.000111	0.000017	-0.158081	-0.192044	0.968571	0.776481	-0.630138	0.001789	0.609990	0.752359	0.248732
11313		9.741823	0.073406	2.397142	-0.001651	0.010417	-0.002437	1.000000	-0.000021	0.000130	-0.000030	-0.158223	-0.192087	0.968539	0.776465	-0.630158	0.001868	0.609974	0.752332	0.248855
11314		9.713902	0.021000	2.418274	-0.003648	0.002694	-0.000785	1.000000	-0.000046	0.000034	-0.000010	-0.158243	-0.192006	0.968552	0.776384	-0.630257	0.001904	0.610071	0.752270	0.248804
11315		9.715630	0.055372	2.425902	-0.004675	-0.000337	-0.001138	1.000000	-0.000058	-0.000004	-0.000014	-0.158156	-0.191845	0.968598	0.776286	-0.630378	0.001899	0.610219	0.752209	0.248624
11316		9.764580	0.061549	2.463384	-0.005666	0.004301	-0.001478	1.000000	-0.000071	0.000054	-0.000018	-0.158138	-0.191796	0.968611	0.776271	-0.630396	0.001911	0.610242	0.752207	0.248575
11317		9.769856	0.063793	2.457286	-0.001154	0.009620	-0.007412	1.000000	-0.000014	0.000120	-0.000093	-0.158296	-0.191766	0.968591	0.776354	-0.630293	0.002091	0.610095	0.752301	0.248651
11318		9.724197	0.075313	2.440546	0.007999	0.010114	-0.009880	1.000000	0.000100	0.000126	-0.000124	-0.158575	-0.191696	0.968559	0.776486	-0.630130	0.002414	0.609855	0.752455	0.248772
11319		9.706648	0.110297	2.423555	0.002637	0.006263	-0.006579	1.000000	0.000033	0.000078	-0.000082	-0.158771	-0.191617	0.968543	0.776555	-0.630044	0.002650	0.609717	0.752547	0.248834
11320		9.677623	0.080311	2.447667	-0.017393	0.006978	-0.005983	1.000000	-0.000217	0.000087	-0.000075	-0.158874	-0.191565	0.968536	0.776404	-0.630230	0.002706	0.609882	0.752405	0.248859
11321		9.740535	0.030246	2.425304	-0.017879	0.004188	-0.009428	1.000000	-0.000223	0.000052	-0.000118	-0.159065	-0.191406	0.968536	0.776181	-0.630503	0.002871	0.610115	0.752216	0.248857
11322		9.768714	0.025725	2.446426	-0.016570	0.005892	-0.008978	1.000000	-0.000207	0.000074	-0.000112	-0.159220	-0.191305	0.968531	0.776079	-0.630628	0.003020	0.610205	0.752137	0.248877
11323		9.746725	0.024085	2.492089	-0.008452	0.001934	-0.008058	1.000000	-0.000106	0.000024	-0.000101	-0.159315	-0.191105	0.968554	0.775968	-0.630765	0.003182	0.610322	0.752074	0.248781
11324		9.667862	0.046967	2.439053	0.002842	0.005372	-0.007908	1.000000	0.000036	0.000067	-0.000099	-0.159530	-0.190980	0.968544	0.775998	-0.630726	0.003447	0.610227	0.752138	0.248820
11325		9.726412	0.049228	2.336890	-0.001884	0.006689	-0.011408	1.000000	-0.000024	0.000084	-0.000143	-0.159776	-0.190795	0.968540	0.775900	-0.630845	0.003725	0.610288	0.752085	0.248832
11326		9.861250	0.011319	2.453888	-0.024120	-0.001753	-0.012998	1.000000	-0.000302	-0.000022	-0.000162	-0.159949	-0.190451	0.968579	0.775509	-0.631324	0.003929	0.610739	0.751770	0.248676
11327		9.733706	0.086678	2.470387	0.003886	-0.006477	0.002735	1.000000	0.000049	-0.000081	0.000034	-0.159695	-0.190266	0.968657	0.775649	-0.631152	0.003902	0.610628	0.751961	0.248372
11328		9.579708	0.123779	2.461901	0.003149	0.006162	0.000158	1.000000	0.000039	0.000077	0.000002	-0.159667	-0.190273	0.968660	0.775761	-0.631015	0.003922	0.610493	0.752075	0.248359
11329		9.669147	0.074776	2.373137	-0.006101	0.002347	-0.000228	1.000000	-0.000076	0.000029	-0.000003	-0.159635	-0.190194	0.968681	0.775671	-0.631126	0.003910	0.610616	0.752002	0.248277
11330		9.770721	0.081687	2.412172	-0.009993	-0.004788	0.010590	1.000000	-0.000125	-0.000060	0.000132	-0.159299	-0.190186	0.968738	0.775657	-0.631144	0.003641	0.610721	0.751988	0.248060
11331		9.787136	0.090602	2.448848	-0.009997	-0.010346	0.018537	1.000000	-0.000125	-0.000129	0.000232	-0.158642	-0.190185	0.968846	0.775703	-0.631090	0.003133	0.610834	0.752033	0.247645
11332		9.773294	0.070951	2.458377	-0.013048	-0.003519	0.009070	1.000000	-0.000163	-0.000044	0.000113	-0.158303	-0.190161	0.968906	0.775629	-0.631182	0.002847	0.611015	0.751963	0.247412
11333		9.742039	0.061591	2.433772	-0.002707	0.000590	0.006088	1.000000	-0.000034	0.000007	0.000076	-0.158089	-0.190167	0.968940	0.775700	-0.631096	0.002699	0.610981	0.752033	0.247282
11334		9.665637	0.062176	2.390449	-0.014581	-0.000004	0.002931	1.000000	-0.000182	-0.000000	0.000037	-0.157949	-0.190101	0.968976	0.775522	-0.631315	0.002559	0.611242	0.751867	0.247142
11335		9.738761	0.014110	2.434641	-0.008221	-0.007414	0.001833	1.000000	-0.000103	-0.000093	0.000023	-0.157777	-0.189897	0.969044	0.775447	-0.631408	0.002523	0.611382	0.751840	0.246877
11336		9.795291	0.046864	2.491556	-0.010460	-0.012781	0.005262	1.000000	-0.000131	-0.000160	0.000066	-0.157347	-0.189627	0.969166	0.775383	-0.631487	0.002329	0.611575	0.751841	0.246396
11337		9.755967	0.025185	2.468220	0.000261	-0.007561	-0.003670	1.000000	0.000003	-0.000095	-0.000046	-0.157253	-0.189324	0.969241	0.775405	-0.631459	0.002460	0.611570	0.751942	0.246102
11338		9.738119	0.081641	2.451161	0.007182	-0.002921	-0.012040	1.000000	0.000090	-0.000037	-0.000150	-0.157417	-0.188964	0.969285	0.775443	-0.631411	0.002841	0.611480	0.752072	0.245925
11339		9.701792	0.060384	2.394593	0.003023	-0.004250	-0.015347	1.000000	0.000038	-0.000053	-0.000192	-0.157577	-0.188525	0.969344	0.775438	-0.631415	0.003253	0.611445	0.752179	0.245686
11340		9.730669	0.058411	2.412867	0.004506	-0.008607	-0.013911	1.000000	0.000056	-0.000108	-0.000174	-0.157636	-0.188047	0.969427	0.775528	-0.631303	0.003648	0.611316	0.752393	0.245351
11341		9.771049	0.082864	2.431852	0.002054	-0.006447	-0.011007	1.000000	0.000026	-0.000081	-0.000138	-0.157648	-0.187632	0.969506	0.775542	-0.631283	0.003934	0.611295	0.752513	0.245037
11342		9.791317	0.102750	2.411549	0.000445	-0.004131	-0.012023	1.000000	0.000006	-0.000052	-0.000150	-0.157770	-0.187265	0.969557	0.775543	-0.631280	0.004271	0.611262	0.752607	0.244829
11343		9.733760	0.072316	2.436430	-0.005737	0.001145	-0.011330	1.000000	-0.000072	0.000014	-0.000142	-0.157912	-0.187007	0.969584	0.775487	-0.631347	0.004530	0.611296	0.752615	0.244719
11344		9.714860	0.073003	2.410343	0.007219	0.000617	-0.007811	1.000000	0.000090	0.000008	-0.000098	-0.158006	-0.186800	0.969608	0.775636	-0.631162	0.004800	0.611083	0.752821	0.244616
11345		9.703953	0.116465	2.361167	0.006068	0.000553	-0.003060	1.000000	0.000076	0.000007	-0.000038	-0.157948	-0.186648	0.969647	0.775779	-0.630986	0.004909	0.610917	0.753007	0.244460
11346		9.751895	0.096601	2.368001	-0.007304	-0.001065	-0.002515	1.000000	-0.000091	-0.000013	-0.000031	-0.157911	-0.186474	0.969686	0.775672	-0.631117	0.004950	0.611062	0.752940	0.244303
11347		9.770162	0.066709	2.400397	-0.006384	0.001164	-0.002661	1.000000	-0.000080	0.000015	-0.000033	-0.157888	-0.186336	0.969717	0.775584	-0.631225	0.004987	0.611180	0.752884	0.244182
11348		9.759828	0.018234	2.396729	-0.000979	0.001937	0.000136	1.000000	-0.000012	0.000024	0.000002	-0.157860	-0.186260	0.969736	0.775572	-0.631239	0.005009	0.611202	0.752891	0.244106
11349		9.719822	0.045213	2.409302	0.015098	-0.000090	0.003790	1.000000	0.000189	-0.000001	0.000047	-0.157725	-0.186232	0.969763	0.775909	-0.630824	0.005053	0.610809	0.753245	0.243996
11350		9.734718	0.092931	2.391646	0.021265	-0.002669	0.002628	1.000000	0.000266	-0.000033	0.000033	-0.157519	-0.186092	0.969823	0.776242	-0.630415	0.005113	0.610439	0.753623	0.243755
11351		9.708519	0.117353	2.339734	0.009945	0.000705	-0.002195	1.000000	0.000124	0.000009	-0.000027	-0.157479	-0.185961	0.969855	0.776434	-0.630177	0.005242	0.610206	0.753853	0.243627
11352		9.866515	0.035401	2.391838	-0.011831	0.001859	-0.005001	1.000000	-0.000148	0.000023	-0.000063	-0.157583	-0.185807	0.969868	0.776219	-0.630441	0.005339	0.610452	0.753671	0.243574
11353		9.824398	0.068705	2.452059	0.006523	-0.005759	0.004104	1.000000	0.000082	-0.000072	0.000051	-0.157338	-0.185662	0.969935	0.776393	-0.630227	0.005307	0.610294	0.753886	0.243305
11354		9.647508	0.161431	2.449279	0.030699	0.005457	0.003544	1.000000	0.000384	0.000068	0.000044	-0.157261	-0.185686	0.969943	0.776848	-0.629665	0.005410	0.609735	0.754349	0.243272
11355		9.628262	0.197506	2.382213	0.004193	0.007926	-0.002758	1.000000	0.000052	0.000099	-0.000034	-0.157371	-0.185698	0.969923	0.776969	-0.629514	0.005539	0.609552	0.754472	0.243349
11356		9.745956	0.105774	2.356329	-0.012824	0.007379	0.003557	1.000000	-0.000160	0.000092	0.000044	-0.157368	-0.185795	0.969905	0.776831	-0.629685	0.005419	0.609728	0.754305	0.243424
11357		9.805053	0.072495	2.407572	-0.012111	0.001017	0.014087	1.000000	-0.000151	0.000013	0.000176	-0.157077	-0.185936	0.969925	0.776729	-0.629815	0.005052	0.609934	0.754163	0.243351
11358		9.803668	0.078103	2.470426	-0.005462	0.006779	0.008428	1.000000	-0.000068	0.000085	0.000105	-0.156917	-0.186097	0.969920	0.776763	-0.629774	0.004834	0.609931	0.754157	0.243376
11359		9.791547	0.086987	2.430165	-0.001249	0.017560	-0.001804	1.000000	-0.000016	0.000220	-0.000023	-0.157158	-0.186295	0.969843	0.776775	-0.629760	0.004903	0.609855	0.754120	0.243681
11360		9.672919	0.089661	2.373686	-0.007878	0.021086	-0.002679	1.000000	-0.000098	0.000264	-0.000033	-0.157455	-0.186556	0.969745	0.776720	-0.629826	0.004951	0.609847	0.754000	0.244071
11361		9.684956	0.017762	2.362624	-0.007368	0.016166	-0.003449	1.000000	-0.000092	0.000202	-0.000043	-0.157670	-0.186679	0.969686	0.776593	-0.629983	0.004992	0.609954	0.753839	0.244303
11362		9.784541	0.071713	2.424499	-0.000886	0.007744	0.005326	1.000000	-0.000011	0.000097	0.000067	-0.157625	-0.186811	0.969668	0.776653	-0.629909	0.004895	0.609889	0.753867	0.244377
11363		9.808434	0.098175	2.461915	-0.004869	0.010913	-0.000257	1.000000	-0.000061	0.000136	-0.000003	-0.157689	-0.186920	0.969637	0.776687	-0.629868	0.004889	0.609829	0.753875	0.244502
11364		9.745994	0.111773	2.446840	-0.003834	0.016996	-0.010189	1.000000	-0.000048	0.000212	-0.000127	-0.158125	-0.186967	0.969557	0.776561	-0.630021	0.005158	0.609876	0.753736	0.244813
11365		9.694959	0.057018	2.367293	0.008204	0.018169	-0.007901	1.000000	0.000103	0.000227	-0.000099	-0.158485	-0.187086	0.969475	0.776714	-0.629830	0.005431	0.609588	0.753865	0.245131
11366		9.666276	0.095864	2.344520	0.002335	0.008667	-0.000583	1.000000	0.000029	0.000108	-0.000007	-0.158555	-0.187123	0.969456	0.776751	-0.629785	0.005478	0.609523	0.753894	0.245203
11367		9.743332	0.095981	2.403015	-0.006785	0.002758	0.002809	1.000000	-0.000085	0.000034	0.000035	-0.158445	-0.187113	0.969476	0.776718	-0.629826	0.005383	0.609594	0.753862	0.245127
11368		9.768673	0.101522	2.436002	0.003564	0.004371	-0.002506	1.000000	0.000045	0.000055	-0.000031	-0.158506	-0.187054	0.969478	0.776797	-0.629728	0.005502	0.609478	0.753959	0.245118
11369		9.762106	0.105672	2.409172	-0.005172	0.008498	-0.001776	1.000000	-0.000065	0.000106	-0.000022	-0.158572	-0.187080	0.969462	0.776771	-0.629759	0.005528	0.609493	0.753927	0.245180
11370		9.702451	0.074515	2.386250	-0.002440	0.005892	0.004317	1.000000	-0.000031	0.000074	0.000054	-0.158532	-0.187145	0.969456	0.776744	-0.629793	0.005442	0.609538	0.753882	0.245206
11371		9.683894	0.090782	2.413433	-0.000199	0.000698	0.004147	1.000000	-0.000002	0.000009	0.000052	-0.158388	-0.187132	0.969482	0.776838	-0.629677	0.005373	0.609455	0.753982	0.245104
11372		9.716943	0.107328	2.428588	-0.004209	-0.001295	0.000882	1.000000	-0.000053	-0.000016	0.000011	-0.158264	-0.187023	0.969523	0.776852	-0.629661	0.005350	0.609470	0.754023	0.244942
11373		9.761331	0.065697	2.454030	-0.006334	0.002004	0.002025	1.000000	-0.000079	0.000025	0.000025	-0.158176	-0.186993	0.969543	0.776828	-0.629690	0.005289	0.609523	0.754005	0.244864
11374		9.742457	0.063356	2.428286	0.003484	0.003175	0.002617	1.000000	0.000044	0.000040	0.000033	-0.158099	-0.187012	0.969552	0.777002	-0.629476	0.005285	0.609322	0.754179	0.244828
11375		9.725747	0.090630	2.445917	-0.001104	-0.000100	0.000554	1.000000	-0.000014	-0.000001	0.000007	-0.158014	-0.186911	0.969585	0.777019	-0.629455	0.005288	0.609322	0.754222	0.244696
11376		9.754228	0.084398	2.465738	-0.013758	-0.001093	-0.000084	1.000000	-0.000172	-0.000014	-0.000001	-0.157901	-0.186793	0.969626	0.776897	-0.629606	0.005225	0.609507	0.754125	0.244535
11377		9.728161	0.046795	2.439411	-0.003358	-0.001140	-0.003038	1.000000	-0.000042	-0.000014	-0.000038	-0.157896	-0.186640	0.969657	0.776910	-0.629590	0.005326	0.609492	0.754177	0.244412
11378		9.704935	0.060855	2.375855	0.012675	0.004049	-0.009652	1.000000	0.000158	0.000051	-0.000121	-0.158132	-0.186451	0.969655	0.777025	-0.629444	0.005685	0.609284	0.754345	0.244412
11379		9.860804	0.055068	2.429198	-0.009341	0.003432	-0.006508	1.000000	-0.000117	0.000043	-0.000081	-0.158282	-0.186301	0.969659	0.776836	-0.629676	0.005826	0.609486	0.754188	0.244392
11380		9.793371	0.138829	2.467759	-0.004176	-0.006691	0.001818	1.000000	-0.000052	-0.000084	0.000023	-0.158050	-0.186109	0.969734	0.776867	-0.629638	0.005778	0.609506	0.754267	0.244097
11381		9.623323	0.126027	2.462885	-0.012379	0.008432	-0.006612	1.000000	-0.000155	0.000105	-0.000083	-0.158162	-0.186036	0.969730	0.776684	-0.629864	0.005841	0.609711	0.754097	0.244111
11382		9.670004	0.007983	2.391991	-0.011560	0.007552	-0.012420	1.000000	-0.000144	0.000094	-0.000155	-0.158445	-0.185887	0.969712	0.776524	-0.630058	0.006101	0.609840	0.753971	0.244175
11383		9.781083	-0.000488	2.351282	0.015430	0.004985	0.000677	1.000000	0.000193	0.000062	0.000008	-0.158504	-0.185905	0.969699	0.776788	-0.629731	0.006243	0.609489	0.754240	0.244224
11384		9.822308	0.103154	2.413160	0.015433	-0.003268	0.009090	1.000000	0.000193	-0.000041	0.000114	-0.158226	-0.185863	0.969752	0.777020	-0.629446	0.006140	0.609266	0.754488	0.244014
11385		9.772984	0.193048	2.442530	0.000519	0.005444	-0.001215	1.000000	0.000006	0.000068	-0.000015	-0.158289	-0.185847	0.969745	0.777050	-0.629409	0.006213	0.609211	0.754523	0.244041
11386		9.700795	0.132859	2.405358	-0.012661	0.012056	-0.001556	1.000000	-0.000158	0.000151	-0.000019	-0.158486	-0.185954	0.969692	0.776868	-0.629633	0.006229	0.609392	0.754310	0.244250
11387		9.667517	0.042413	2.342706	-0.016468	0.007540	0.000392	1.000000	-0.000206	0.000094	0.000005	-0.158553	-0.186002	0.969672	0.776638	-0.629918	0.006160	0.609668	0.754060	0.244332
11388		9.757845	0.054505	2.376170	-0.004477	-0.000370	0.006409	1.000000	-0.000056	-0.000005	0.000080	-0.158356	-0.185982	0.969708	0.776601	-0.629964	0.005999	0.609765	0.754027	0.244192
11389		9.800991	0.105149	2.453604	-0.016611	-0.006480	0.007804	1.000000	-0.000208	-0.000081	0.000098	-0.158028	-0.185879	0.969782	0.776424	-0.630185	0.005731	0.610077	0.753867	0.243907
11390		9.754765	0.097358	2.479191	-0.005689	0.003050	-0.000561	1.000000	-0.000071	0.000038	-0.000007	-0.157994	-0.185803	0.969802	0.776326	-0.630305	0.005715	0.610209	0.753786	0.243828
11391		9.712081	0.077236	2.396205	0.004328	0.007659	-0.008315	1.000000	0.000054	0.000096	-0.000104	-0.158246	-0.185733	0.969774	0.776419	-0.630188	0.006000	0.610026	0.753901	0.243931
11392		9.695954	0.065999	2.359043	-0.005295	0.004158	-0.006512	1.000000	-0.000066	0.000052	-0.000081	-0.158345	-0.185600	0.969783	0.776352	-0.630270	0.006139	0.610086	0.753865	0.243891
11393		9.716986	0.025215	2.379265	-0.012191	-0.004252	-0.003776	1.000000	-0.000152	-0.000053	-0.000047	-0.158303	-0.185364	0.969835	0.776193	-0.630465	0.006196	0.610299	0.753760	0.243683
11394		9.774910	0.065289	2.465075	0.001632	-0.003379	-0.005064	1.000000	0.000020	-0.000042	-0.000063	-0.158292	-0.185126	0.969883	0.776252	-0.630391	0.006365	0.610227	0.753881	0.243490
11395		9.770270	0.129772	2.460857	0.014962	0.003837	-0.009318	1.000000	0.000187	0.000048	-0.000116	-0.158483	-0.184947	0.969885	0.776459	-0.630132	0.006717	0.609914	0.754140	0.243470
11396		9.740414	0.196698	2.403292	-0.007338	0.008649	-0.010489	1.000000	-0.000092	0.000108	-0.000131	-0.158767	-0.184833	0.969861	0.776299	-0.630327	0.006955	0.610044	0.754006	0.243561
11397		9.699750	0.119976	2.373382	-0.032473	0.005378	-0.003301	1.000000	-0.000406	0.000067	-0.000041	-0.158813	-0.184769	0.969866	0.775822	-0.630915	0.006843	0.610639	0.753529	0.243545
11398		9.728947	0.054302	2.433438	-0.024632	0.002564	0.000349	1.000000	-0.000308	0.000032	0.000004	-0.158777	-0.184721	0.969880	0.775487	-0.631327	0.006712	0.611072	0.753196	0.243489
11399		9.742781	0.031770	2.465648	-0.009306	0.006756	0.000536	1.000000	-0.000116	0.000084	0.000007	-0.158808	-0.184749	0.969870	0.775361	-0.631483	0.006669	0.611224	0.753059	0.243532
11400		9.778358	0.049954	2.412672	-0.003026	0.015149	0.002281	1.000000	-0.000038	0.000189	0.000029	-0.158898	-0.184975	0.969812	0.775407	-0.631427	0.006612	0.611143	0.753050	0.243763
11401		9.753254	0.022022	2.380748	-0.004739	0.012728	0.002144	1.000000	-0.000059	0.000159	0.000027	-0.158972	-0.185150	0.969767	0.775399	-0.631438	0.006554	0.611134	0.752998	0.243946
11402		9.741686	0.050088	2.392866	0.005976	0.008282	0.005390	1.000000	0.000075	0.000104	0.000067	-0.158930	-0.185307	0.969744	0.775596	-0.631196	0.006497	0.610894	0.753162	0.244039
11403		9.737419	0.076488	2.446245	0.005330	0.007227	0.007972	1.000000	0.000067	0.000090	0.000100	-0.158821	-0.185444	0.969735	0.775672	-0.631104	0.006351	0.610826	0.753205	0.244076
11404		9.727810	0.113918	2.448494	0.009134	0.007615	0.010235	1.000000	0.000114	0.000095	0.000128	-0.158670	-0.185656	0.969719	0.775915	-0.630807	0.006189	0.610557	0.753402	0.244144
11405		9.672005	0.139102	2.365231	0.015176	0.009438	0.010470	1.000000	0.000190	0.000118	0.000131	-0.158561	-0.185896	0.969691	0.776201	-0.630457	0.006060	0.610222	0.753636	0.244258
11406		9.820458	0.044857	2.386624	-0.014634	0.003725	0.008501	1.000000	-0.000183	0.000047	0.000106	-0.158360	-0.185984	0.969707	0.776028	-0.630672	0.005771	0.610494	0.753434	0.244202
11407		9.830997	0.132652	2.459376	-0.002436	-0.011900	0.017859	1.000000	-0.000030	-0.000149	0.000223	-0.157751	-0.185918	0.969819	0.776038	-0.630663	0.005330	0.610638	0.753458	0.243767
11408		9.624095	0.155723	2.469430	-0.005916	0.004599	0.012477	1.000000	-0.000074	0.000057	0.000156	-0.157533	-0.186097	0.969820	0.776009	-0.630702	0.005026	0.610732	0.753381	0.243769
11409		9.639074	0.043312	2.412307	-0.016856	0.004126	0.001167	1.000000	-0.000211	0.000052	0.000015	-0.157493	-0.186087	0.969829	0.775785	-0.630978	0.004912	0.611026	0.753152	0.243738
11410		9.757524	-0.012955	2.343398	0.006688	0.000633	0.012641	1.000000	0.000084	0.000008	0.000158	-0.157257	-0.186190	0.969847	0.775896	-0.630843	0.004700	0.610946	0.753240	0.243669
11411		9.796277	0.074516	2.399791	0.016298	-0.010756	0.021109	1.000000	0.000204	-0.000134	0.000264	-0.156629	-0.186204	0.969946	0.776204	-0.630467	0.004310	0.610716	0.753552	0.243282
11412		9.799671	0.127076	2.472089	0.000683	-0.002449	0.009132	1.000000	0.000009	-0.000031	0.000114	-0.156350	-0.186195	0.969993	0.776266	-0.630393	0.004117	0.610710	0.753616	0.243098
11413		9.771219	0.108041	2.436100	0.014175	0.008226	0.000742	1.000000	0.000177	0.000103	0.000009	-0.156428	-0.186274	0.969965	0.776536	-0.630059	0.004235	0.610347	0.753875	0.243208
11414		9.704415	0.055540	2.354875	0.000429	0.011264	-0.003570	1.000000	0.000005	0.000141	-0.000045	-0.156656	-0.186363	0.969911	0.776621	-0.629953	0.004395	0.610179	0.753942	0.243419
11415		9.733483	0.029380	2.373564	0.013880	0.003326	-0.003120	1.000000	0.000174	0.000042	-0.000039	-0.156686	-0.186270	0.969924	0.776850	-0.629669	0.004570	0.609880	0.754202	0.243364
11416		9.723344	0.109622	2.430355	0.000416	0.000511	0.002489	1.000000	0.000005	0.000006	0.000031	-0.156661	-0.186262	0.969930	0.776969	-0.629522	0.004603	0.609734	0.754327	0.243341
11417		9.743930	0.068538	2.451833	0.011120	0.009695	-0.003599	1.000000	0.000139	0.000121	-0.000045	-0.156809	-0.186287	0.969901	0.777164	-0.629280	0.004784	0.609448	0.754522	0.243453
11418		9.727910	0.094711	2.373830	0.013968	0.013642	-0.007753	1.000000	0.000175	0.000171	-0.000097	-0.157115	-0.186319	0.969845	0.777360	-0.629036	0.005087	0.609119	0.754718	0.243668
11419		9.734710	0.108635	2.360045	0.012355	0.011826	-0.004571	1.000000	0.000154	0.000148	-0.000057	-0.157325	-0.186374	0.969801	0.777575	-0.628768	0.005306	0.608791	0.754927	0.243841
11420		9.744220	0.097217	2.391796	-0.003446	0.004485	-0.002600	1.000000	-0.000043	0.000056	-0.000033	-0.157386	-0.186312	0.969803	0.777525	-0.628829	0.005375	0.608839	0.754892	0.243831
11421		9.771672	0.060558	2.418855	0.011047	0.003501	-0.003168	1.000000	0.000138	0.000044	-0.000040	-0.157459	-0.186213	0.969810	0.777652	-0.628670	0.005550	0.608657	0.755049	0.243799
11422		9.769109	0.105169	2.426015	0.021036	0.005038	-0.000618	1.000000	0.000263	0.000063	-0.000008	-0.157478	-0.186201	0.969809	0.778022	-0.628211	0.005720	0.608179	0.755434	0.243798
11423		9.717949	0.204004	2.370650	0.005496	0.008187	0.001461	1.000000	0.000069	0.000102	0.000018	-0.157546	-0.186291	0.969781	0.778156	-0.628045	0.005771	0.607991	0.755550	0.243909
11424		9.701451	0.177400	2.392194	-0.010489	0.002974	0.003841	1.000000	-0.000131	0.000037	0.000048	-0.157441	-0.186316	0.969793	0.778090	-0.628127	0.005643	0.608102	0.755475	0.243864
11425		9.697185	0.099041	2.400487	-0.024246	0.001885	0.003721	1.000000	-0.000303	0.000024	0.000047	-0.157327	-0.186312	0.969812	0.777785	-0.628507	0.005433	0.608521	0.755161	0.243792
11426		9.721262	0.039219	2.444818	-0.012749	-0.001989	0.001636	1.000000	-0.000159	-0.000025	0.000020	-0.157185	-0.186203	0.969856	0.777663	-0.628659	0.005340	0.608714	0.755061	0.243619
11427		9.756844	0.073338	2.428444	-0.006194	0.001339	0.002057	1.000000	-0.000077	0.000017	0.000026	-0.157171	-0.186178	0.969864	0.777610	-0.628724	0.005323	0.608786	0.755012	0.243591
11428		9.746121	0.054027	2.404999	-0.007477	0.001267	-0.004953	1.000000	-0.000093	0.000016	-0.000062	-0.157226	-0.186026	0.969884	0.777522	-0.628832	0.005430	0.608884	0.754960	0.243508
11429		9.739279	0.051642	2.399352	0.000998	-0.000101	-0.009494	1.000000	0.000012	-0.000001	-0.000119	-0.157329	-0.185781	0.969914	0.777569	-0.628772	0.005692	0.608797	0.755070	0.243381
11430		9.735179	0.086764	2.414534	0.006673	-0.000657	-0.006575	1.000000	0.000083	-0.000008	-0.000082	-0.157368	-0.185548	0.969952	0.777642	-0.628680	0.005903	0.608694	0.755204	0.243224
11431		9.748882	0.115386	2.478786	-0.006503	-0.000469	-0.007897	1.000000	-0.000081	-0.000006	-0.000099	-0.157477	-0.185315	0.969979	0.777527	-0.628820	0.006096	0.608812	0.755145	0.243112
11432		9.699223	0.084975	2.411303	0.002060	0.001661	-0.012401	1.000000	0.000026	0.000021	-0.000155	-0.157700	-0.185061	0.969991	0.777560	-0.628775	0.006453	0.608712	0.755244	0.243055
11433		9.790616	0.037302	2.372701	-0.003047	0.006189	-0.016988	1.000000	-0.000038	0.000077	-0.000212	-0.158027	-0.184820	0.969984	0.777542	-0.628794	0.006865	0.608651	0.755288	0.243072
11434		9.856866	0.044939	2.423201	0.003173	-0.005456	-0.002653	1.000000	0.000040	-0.000068	-0.000033	-0.157916	-0.184582	0.970047	0.777650	-0.628658	0.006973	0.608541	0.755459	0.242815
11435		9.707473	0.214417	2.416395	0.012472	0.002724	0.006707	1.000000	0.000156	0.000034	0.000084	-0.157723	-0.184642	0.970067	0.777944	-0.628296	0.006897	0.608216	0.755746	0.242738
11436		9.588914	0.086151	2.429566	-0.015129	0.010468	-0.000109	1.000000	-0.000189	0.000131	-0.000001	-0.157790	-0.184739	0.970038	0.777781	-0.628498	0.006822	0.608407	0.755554	0.242857
11437		9.734961	0.054326	2.363730	-0.002135	0.012207	0.004437	1.000000	-0.000027	0.000153	0.000055	-0.157804	-0.184932	0.969999	0.777797	-0.628480	0.006715	0.608383	0.755522	0.243016
11438		9.804372	0.077966	2.397876	0.018347	0.003372	0.016268	1.000000	0.000229	0.000042	0.000203	-0.157477	-0.185148	0.970011	0.778163	-0.628029	0.006459	0.608000	0.755844	0.242976
11439		9.796889	0.142099	2.443029	-0.002650	0.005575	0.022521	1.000000	-0.000033	0.000070	0.000282	-0.157067	-0.185510	0.970008	0.778249	-0.627928	0.005928	0.607996	0.755839	0.242999
11440		9.742111	0.124251	2.451717	-0.013367	0.012923	0.015971	1.000000	-0.000167	0.000162	0.000200	-0.156884	-0.185909	0.969961	0.778161	-0.628041	0.005488	0.608155	0.755647	0.243197
11441		9.673472	0.056198	2.380748	-0.017602	0.017212	0.013088	1.000000	-0.000220	0.000215	0.000164	-0.156837	-0.186334	0.969888	0.777955	-0.628299	0.005092	0.608430	0.755328	0.243500
11442		9.724803	-0.025496	2.359202	0.003148	0.007636	0.016587	1.000000	0.000039	0.000095	0.000207	-0.156545	-0.186652	0.969874	0.778162	-0.628046	0.004734	0.608242	0.755460	0.243563
11443		9.786418	0.061026	2.422449	0.002365	-0.004964	0.024726	1.000000	0.000030	-0.000062	0.000309	-0.155925	-0.186857	0.969934	0.778361	-0.627804	0.004182	0.608147	0.755611	0.243332
11444		9.738876	0.095389	2.467212	0.004841	-0.000500	0.019974	1.000000	0.000061	-0.000006	0.000250	-0.155451	-0.187051	0.969973	0.778527	-0.627600	0.003742	0.608055	0.755731	0.243185
11445		9.726050	0.091690	2.433414	0.004792	0.004258	0.011527	1.000000	0.000060	0.000053	0.000144	-0.155210	-0.187211	0.969980	0.778690	-0.627399	0.003509	0.607908	0.755858	0.243158
11446		9.715117	0.050903	2.357850	0.004480	0.004346	0.012355	1.000000	0.000056	0.000054	0.000154	-0.154957	-0.187392	0.969986	0.778867	-0.627181	0.003260	0.607745	0.755995	0.243140
11447		9.712181	0.058764	2.370075	-0.006940	-0.004009	0.015842	1.000000	-0.000087	-0.000050	0.000198	-0.154524	-0.187469	0.970040	0.778867	-0.627182	0.002863	0.607855	0.755975	0.242928
11448		9.743605	0.061849	2.393583	-0.008077	-0.004938	0.011692	1.000000	-0.000101	-0.000062	0.000146	-0.154158	-0.187434	0.970105	0.778745	-0.627335	0.002542	0.608104	0.755857	0.242672
11449		9.768330	0.032719	2.431322	-0.002974	0.000236	0.008331	1.000000	-0.000037	0.000003	0.000104	-0.153910	-0.187471	0.970137	0.778793	-0.627277	0.002337	0.608107	0.755896	0.242545
11450		9.745662	0.037857	2.404232	0.001922	0.006096	0.009116	1.000000	0.000024	0.000076	0.000114	-0.153788	-0.187638	0.970124	0.778897	-0.627148	0.002173	0.608004	0.755961	0.242599
11451		9.742113	0.105439	2.378204	-0.008403	0.000742	0.008772	1.000000	-0.000105	0.000009	0.000110	-0.153521	-0.187693	0.970156	0.778884	-0.627165	0.001917	0.608088	0.755933	0.242474
11452		9.722792	0.088463	2.410843	-0.024794	0.001866	0.003968	1.000000	-0.000310	0.000023	0.000050	-0.153434	-0.187693	0.970170	0.778543	-0.627589	0.001711	0.608546	0.755582	0.242421
11453		9.743354	-0.004559	2.398782	-0.032718	0.005979	0.007756	1.000000	-0.000409	0.000075	0.000097	-0.153276	-0.187838	0.970167	0.778171	-0.628052	0.001342	0.609063	0.755161	0.242435
11454		9.763447	-0.020993	2.401039	-0.019995	0.006301	0.012683	1.000000	-0.000250	0.000079	0.000159	-0.153038	-0.188053	0.970163	0.777954	-0.628320	0.000927	0.609398	0.754884	0.242453
11455		9.761997	-0.003899	2.405771	-0.031817	0.006752	0.011347	1.000000	-0.000398	0.000084	0.000142	-0.152826	-0.188256	0.970157	0.777564	-0.628804	0.000470	0.609950	0.754431	0.242479
11456		9.756796	-0.054798	2.395602	-0.025908	0.009628	0.005927	1.000000	-0.000324	0.000120	0.000074	-0.152758	-0.188417	0.970136	0.777207	-0.629245	0.000169	0.610422	0.754022	0.242561
11457		9.756166	-0.033657	2.414627	-0.010526	0.009401	0.008983	1.000000	-0.000132	0.000118	0.000112	-0.152637	-0.188642	0.970111	0.777154	-0.629311	-0.000095	0.610520	0.753911	0.242660
11458		9.767270	-0.039646	2.437742	-0.016404	0.010442	0.013012	1.000000	-0.000205	0.000131	0.000163	-0.152483	-0.188947	0.970076	0.776990	-0.629513	-0.000481	0.610766	0.753666	0.242800
11459		9.688729	-0.020698	2.385607	-0.008622	0.009896	0.005903	1.000000	-0.000108	0.000124	0.000074	-0.152448	-0.189118	0.970048	0.776885	-0.629642	-0.000661	0.610909	0.753515	0.242911
11460		9.739578	-0.045980	2.360924	-0.003023	0.013079	-0.001492	1.000000	-0.000038	0.000163	-0.000019	-0.152636	-0.189242	0.969995	0.776845	-0.629692	-0.000608	0.610913	0.753443	0.243125
11461		9.883057	-0.059531	2.431997	-0.016080	0.002688	0.007942	1.000000	-0.000201	0.000034	0.000099	-0.152382	-0.189323	0.970019	0.776738	-0.629824	-0.000906	0.611112	0.753312	0.243028
11462		9.739700	0.048008	2.444220	0.006446	0.003941	0.016340	1.000000	0.000081	0.000049	0.000204	-0.152056	-0.189546	0.970026	0.776899	-0.629624	-0.001248	0.610988	0.753423	0.242996
11463		9.601317	0.024600	2.424587	-0.009792	0.010440	0.002209	1.000000	-0.000122	0.000131	0.000028	-0.152132	-0.189685	0.969987	0.776791	-0.629758	-0.001321	0.611107	0.753276	0.243152
11464		9.692244	-0.052120	2.370564	-0.005055	0.007851	0.002463	1.000000	-0.000063	0.000098	0.000031	-0.152091	-0.189768	0.969978	0.776775	-0.629777	-0.001414	0.611138	0.753239	0.243190
11465		9.773693	-0.079119	2.391408	0.011221	0.000312	0.010514	1.000000	0.000140	0.000004	0.000131	-0.151856	-0.189840	0.970000	0.776991	-0.629509	-0.001562	0.610921	0.753445	0.243099
11466		9.823183	0.003773	2.456500	0.008455	-0.002847	0.015153	1.000000	0.000106	-0.000036	0.000189	-0.151479	-0.189927	0.970042	0.777186	-0.629268	-0.001843	0.610767	0.753624	0.242929
11467		9.761762	0.039142	2.454709	0.009289	0.007289	0.004696	1.000000	0.000116	0.000091	0.000059	-0.151395	-0.190047	0.970032	0.777432	-0.628964	-0.001890	0.610475	0.753847	0.242970
11468		9.719432	0.012855	2.408336	0.001513	0.011161	0.002905	1.000000	0.000019	0.000140	0.000036	-0.151454	-0.190225	0.969988	0.777555	-0.628812	-0.001909	0.610303	0.753929	0.243147
11469		9.675221	-0.077318	2.373876	-0.002012	0.009264	0.003533	1.000000	-0.000025	0.000116	0.000044	-0.151459	-0.190352	0.969962	0.777552	-0.628815	-0.001988	0.610305	0.753895	0.243248
11470		9.765206	-0.018478	2.442053	0.004686	0.000715	0.011495	1.000000	0.000059	0.000009	0.000144	-0.151185	-0.190435	0.969988	0.777652	-0.628691	-0.002222	0.610246	0.753977	0.243141
11471		9.797066	0.017769	2.461562	-0.001358	0.004514	0.007500	1.000000	-0.000017	0.000056	0.000094	-0.151089	-0.190543	0.969982	0.777662	-0.628678	-0.002365	0.610257	0.753961	0.243164
11472		9.762643	0.016112	2.486859	-0.000761	0.008914	0.000222	1.000000	-0.000010	0.000111	0.000003	-0.151175	-0.190628	0.969952	0.777705	-0.628625	-0.002334	0.610181	0.753984	0.243285
11473		9.690209	-0.061668	2.396058	0.003975	0.011707	-0.000446	1.000000	0.000050	0.000146	-0.000006	-0.151301	-0.190744	0.969910	0.777792	-0.628518	-0.002274	0.610039	0.754044	0.243455
11474		9.702275	-0.027413	2.376985	0.009183	0.006273	0.007003	1.000000	0.000115	0.000078	0.000088	-0.151193	-0.190882	0.969899	0.778012	-0.628245	-0.002361	0.609785	0.754237	0.243494
11475		9.743672	-0.002714	2.426985	0.000064	0.004738	0.003314	1.000000	0.000001	0.000059	0.000041	-0.151154	-0.190916	0.969899	0.778009	-0.628248	-0.002416	0.609798	0.754225	0.243497
11476		9.790890	0.029431	2.433268	0.002663	0.007317	-0.000451	1.000000	0.000033	0.000091	-0.000006	-0.151225	-0.190966	0.969878	0.778123	-0.628108	-0.002346	0.609636	0.754329	0.243581
11477		9.749542	0.001290	2.436538	0.001352	0.011006	-0.001844	1.000000	0.000017	0.000138	-0.000023	-0.151337	-0.191056	0.969843	0.778216	-0.627992	-0.002277	0.609489	0.754403	0.243721
11478		9.716944	-0.007691	2.400583	-0.000934	0.008338	0.001093	1.000000	-0.000012	0.000104	0.000014	-0.151329	-0.191131	0.969829	0.778268	-0.627928	-0.002312	0.609424	0.754437	0.243775
11479		9.707708	0.026675	2.438881	-0.004343	0.005183	-0.005743	1.000000	-0.000054	0.000065	-0.000072	-0.151446	-0.191035	0.969830	0.778192	-0.628023	-0.002186	0.609493	0.754383	0.243773
11480		9.701613	0.026333	2.447579	-0.008351	0.003013	-0.006226	1.000000	-0.000104	0.000038	-0.000078	-0.151541	-0.190908	0.969840	0.778116	-0.628117	-0.002058	0.609566	0.754336	0.243734
11481		9.746158	-0.030538	2.434797	-0.012947	0.004943	-0.006440	1.000000	-0.000162	0.000062	-0.000080	-0.151645	-0.190800	0.969845	0.777938	-0.628338	-0.001976	0.609768	0.754179	0.243715
11482		9.759539	-0.069985	2.414296	-0.011978	0.005702	-0.007034	1.000000	-0.000150	0.000071	-0.000088	-0.151789	-0.190707	0.969841	0.777794	-0.628517	-0.001858	0.609916	0.754054	0.243732
11483		9.744707	-0.053847	2.406844	-0.002350	0.003189	-0.015357	1.000000	-0.000029	0.000040	-0.000192	-0.152063	-0.190423	0.969854	0.777713	-0.628617	-0.001486	0.609950	0.754042	0.243684
11484		9.733702	-0.021250	2.417451	0.007494	0.005351	-0.012808	1.000000	0.000094	0.000067	-0.000160	-0.152343	-0.190211	0.969851	0.777745	-0.628578	-0.001112	0.609839	0.754128	0.243695
