// Start Time: Unknown
// Update Rate: 40.0Hz
// Filter Profile: human (46.1)
// Firmware Version: 4.3.4
PacketCounter	SampleTimeFine	Acc_X	Acc_Y	Acc_Z	Gyr_X	Gyr_Y	Gyr_Z	OriInc_q0	OriInc_q1	OriInc_q2	OriInc_q3	Mat[1][1]	Mat[2][1]	Mat[3][1]	Mat[1][2]	Mat[2][2]	Mat[3][2]	Mat[1][3]	Mat[2][3]	Mat[3][3]
10839		3.886271	-1.231736	9.928085	-0.571195	1.083450	0.204300	0.999880	-0.007140	0.013543	0.002554	-0.626496	-0.683347	0.374887	0.702850	-0.703208	-0.107240	0.336906	0.196304	0.920847
10840		5.243994	-1.680138	10.371218	-0.545761	0.947238	0.282626	0.999900	-0.006822	0.011840	0.003533	-0.629446	-0.692650	0.352185	0.702726	-0.700849	-0.122421	0.331623	0.170432	0.927890
10841		6.009373	-2.194269	10.314747	-0.519047	1.257972	0.564760	0.999830	-0.006488	0.015724	0.007059	-0.631976	-0.703440	0.325238	0.705195	-0.696021	-0.135110	0.321414	0.143970	0.935931
10842		4.995057	-2.634498	9.867116	-0.326186	1.380393	0.870298	0.999784	-0.004077	0.017254	0.010878	-0.622792	-0.724881	0.294410	0.718371	-0.678880	-0.151869	0.309956	0.116913	0.943535
10843		5.422151	-3.096481	9.096163	-0.399817	0.913427	0.891722	0.999860	-0.004997	0.011417	0.011146	-0.608137	-0.743059	0.279345	0.730763	-0.661472	-0.168640	0.310089	0.101579	0.945265
10844		7.078142	-3.674471	8.656633	-0.663081	0.571609	1.103052	0.999845	-0.008288	0.007145	0.013787	-0.580739	-0.766425	0.274474	0.746812	-0.635761	-0.195139	0.324060	0.091656	0.941586
10845		6.629555	-4.341392	7.931495	-0.554048	0.478144	1.800559	0.999705	-0.006925	0.005976	0.022505	-0.525939	-0.803806	0.277998	0.778528	-0.586587	-0.223181	0.342465	0.099049	0.934295
10846		5.463571	-4.195002	7.469886	-0.198893	0.027619	2.565300	0.999483	-0.002486	0.000345	0.032061	-0.441788	-0.847784	0.293406	0.818624	-0.514750	-0.254728	0.366985	0.127653	0.921427
10847		4.996490	-3.009011	7.453723	-0.093849	-0.604479	3.068252	0.999235	-0.001173	-0.007554	0.038343	-0.336491	-0.886824	0.316729	0.853513	-0.429318	-0.295299	0.397856	0.170967	0.901377
10848		4.851797	-1.910826	7.657714	-0.361736	-1.106797	3.374734	0.999004	-0.004520	-0.013830	0.042170	-0.215148	-0.914898	0.341575	0.875857	-0.335476	-0.346886	0.431955	0.224539	0.873497
10849		3.761524	-1.808530	7.370163	-0.393663	-1.602615	3.560630	0.998797	-0.004919	-0.020025	0.044490	-0.082903	-0.926978	0.365841	0.885970	-0.236636	-0.398824	0.456272	0.291060	0.840892
10850		2.469219	-1.160995	7.527931	-0.162908	-2.293875	3.618447	0.998564	-0.002035	-0.028660	0.045209	0.051065	-0.919040	0.390842	0.884861	-0.139816	-0.444379	0.463048	0.368533	0.806083
10851		1.773406	-0.173653	7.482351	0.157171	-3.102920	3.426144	0.998329	0.001964	-0.038765	0.042803	0.175612	-0.890130	0.420511	0.876534	-0.053076	-0.478404	0.448161	0.452606	0.770909
10852		1.445649	0.504739	7.131941	0.595184	-4.091857	2.938979	0.997990	0.007435	-0.051114	0.036713	0.283652	-0.838955	0.464431	0.868353	0.019251	-0.495573	0.406822	0.543860	0.733970
10853		2.299186	1.093397	6.567621	1.282193	-5.165226	2.044317	0.997462	0.016014	-0.064511	0.025532	0.365118	-0.764289	0.531556	0.869347	0.075644	-0.488378	0.333053	0.640422	0.692051
10854		4.041418	2.789420	6.401352	1.478278	-6.215409	0.708057	0.996774	0.018459	-0.077609	0.008841	0.407760	-0.664114	0.626645	0.881464	0.107245	-0.459913	0.238230	0.739899	0.629123
10855		6.834740	4.081310	6.218498	0.885254	-6.812202	-0.656988	0.996282	0.011052	-0.085047	-0.008202	0.403023	-0.543535	0.736303	0.903097	0.105836	-0.416191	0.148287	0.832688	0.533519
10856		8.991994	4.583096	6.686489	0.006361	-6.424022	-1.376951	0.996630	0.000079	-0.080210	-0.017193	0.361934	-0.419460	0.832500	0.928137	0.078819	-0.363799	0.086982	0.904345	0.417844
10857		9.913607	3.904361	7.017788	-0.506637	-5.211184	-1.462335	0.997692	-0.006328	-0.065090	-0.018265	0.303609	-0.314408	0.899427	0.950912	0.040647	-0.306779	0.059895	0.948417	0.311316
10858		10.615534	3.439246	7.046706	-0.840171	-3.489662	-1.571239	0.998801	-0.010498	-0.043603	-0.019633	0.235501	-0.246873	0.939996	0.969577	-0.006776	-0.244692	0.066777	0.969024	0.237767
10859		11.571084	3.411173	5.989999	-1.359361	-1.858259	-1.685224	0.999364	-0.016988	-0.023223	-0.021061	0.162165	-0.217026	0.962602	0.981068	-0.069204	-0.180878	0.105871	0.973710	0.201695
10860		12.145868	2.994976	4.892745	-2.011409	-0.669516	-1.767952	0.999405	-0.025138	-0.008367	-0.022095	0.085725	-0.211691	0.973570	0.981746	-0.148571	-0.118750	0.169783	0.965978	0.195091
10861		11.498211	1.860253	4.942099	-2.255413	-0.359412	-1.735106	0.999357	-0.028187	-0.004492	-0.021684	0.012213	-0.207581	0.978142	0.970798	-0.231922	-0.061340	0.239585	0.950327	0.198687
10862		11.215926	0.766970	5.334957	-1.929677	-0.481519	-1.674764	0.999472	-0.024117	-0.006018	-0.020931	-0.054173	-0.195534	0.979200	0.952302	-0.305045	-0.008228	0.300309	0.932048	0.202733
10863		10.768805	0.201076	5.503409	-1.448846	-0.671603	-1.501303	0.999625	-0.018108	-0.008394	-0.018764	-0.109354	-0.176753	0.978162	0.930381	-0.364606	0.038128	0.349905	0.914232	0.204318
10864		10.394180	-0.159941	5.614083	-0.955412	-0.747523	-1.063991	0.999797	-0.011942	-0.009343	-0.013299	-0.140238	-0.163214	0.976573	0.931953	-0.354838	0.074526	0.334362	0.920571	0.201869
10865		9.764270	-0.271254	5.774014	-0.483062	-0.750580	-0.562980	0.999913	-0.006038	-0.009382	-0.007037	-0.160309	-0.152078	0.975281	0.924642	-0.368938	0.094456	0.345454	0.916928	0.199762
10866		9.311894	0.381657	5.840925	-0.397734	-0.683606	-0.235648	0.999947	-0.004972	-0.008545	-0.002946	-0.171622	-0.144606	0.974492	0.913931	-0.392663	0.102688	0.367798	0.908243	0.199550
10867		9.033087	0.905927	5.244240	-0.794630	-0.413599	-0.032394	0.999937	-0.009933	-0.005170	-0.000405	-0.179107	-0.144947	0.973094	0.897476	-0.429285	0.101245	0.403060	0.891462	0.206974
10868		8.690996	0.725788	4.308743	-1.143514	-0.103656	0.085043	0.999896	-0.014293	-0.001296	0.001063	-0.185900	-0.152826	0.970611	0.875629	-0.473929	0.093087	0.445774	0.867200	0.221922
10869		8.065385	0.663915	3.690525	-1.157152	-0.063820	0.116556	0.999894	-0.014464	-0.000798	0.001457	-0.191567	-0.161079	0.968171	0.851703	-0.517502	0.082423	0.487754	0.840384	0.236328
10870		7.853464	0.368294	3.277535	-0.944007	-0.386329	0.030948	0.999919	-0.011800	-0.004829	0.000387	-0.193866	-0.160758	0.967767	0.829586	-0.553419	0.074255	0.523644	0.817242	0.240651
10871		8.137712	0.175310	2.899712	-0.645671	-0.651347	-0.181391	0.999932	-0.008071	-0.008142	-0.002267	-0.195127	-0.151053	0.969076	0.811000	-0.580497	0.072814	0.551547	0.800129	0.235775
10872		8.606553	-0.045571	2.761775	-0.357086	-0.741800	-0.397594	0.999935	-0.004463	-0.009272	-0.004970	-0.197146	-0.134923	0.971045	0.796937	-0.598929	0.078578	0.570985	0.789354	0.225602
10873		9.104753	0.018679	2.681993	-0.164446	-0.719052	-0.503424	0.999938	-0.002056	-0.008988	-0.006293	-0.199485	-0.116526	0.972948	0.787599	-0.609808	0.088448	0.583005	0.783936	0.213423
10874		9.614540	-0.205851	2.488976	-0.003181	-0.576089	-0.520422	0.999953	-0.000040	-0.007201	-0.006505	-0.202913	-0.099753	0.974102	0.782126	-0.615054	0.099938	0.589156	0.782150	0.202822
10875		10.051777	-0.102493	2.401151	0.239615	-0.345972	-0.423905	0.999972	0.002995	-0.004325	-0.005299	-0.207151	-0.088201	0.974325	0.781022	-0.614665	0.110410	0.589146	0.783841	0.196216
10876		9.849856	0.623421	2.280199	0.317966	-0.198986	-0.269936	0.999983	0.003975	-0.002487	-0.003374	-0.210130	-0.081492	0.974271	0.782556	-0.611363	0.117645	0.586047	0.787143	0.192238
10877		9.427270	1.443747	1.946926	0.063268	-0.159096	-0.125440	0.999996	0.000791	-0.001989	-0.001568	-0.210574	-0.077641	0.974490	0.782518	-0.610872	0.120421	0.585939	0.787913	0.189390
10878		9.466793	1.342623	1.855440	-0.150326	-0.241001	-0.082202	0.999993	-0.001879	-0.003013	-0.001028	-0.208865	-0.072513	0.975252	0.779743	-0.614232	0.121324	0.590234	0.785787	0.184833
10879		9.966693	1.114584	1.770691	-0.042911	-0.291333	-0.139424	0.999992	-0.000536	-0.003642	-0.001743	-0.207468	-0.065194	0.976067	0.777909	-0.615979	0.124206	0.593139	0.785061	0.178511
10880		9.786405	1.050817	1.557408	0.241698	-0.224594	-0.155408	0.999990	0.003021	-0.002807	-0.001943	-0.207309	-0.058796	0.976507	0.780320	-0.611970	0.128812	0.590020	0.788692	0.172747
10881		9.325851	0.972518	1.372547	0.526831	-0.137522	-0.118175	0.999976	0.006585	-0.001719	-0.001477	-0.207690	-0.054635	0.976668	0.787329	-0.601848	0.133759	0.580498	0.796740	0.168013
10882		9.379999	1.100480	1.563272	0.886061	-0.155339	-0.055497	0.999937	0.011076	-0.001942	-0.000694	-0.206595	-0.051064	0.977093	0.800006	-0.583753	0.138645	0.563302	0.810324	0.161452
10883		10.070408	2.186106	1.972313	1.015849	-0.250205	0.056694	0.999914	0.012698	-0.003127	0.000709	-0.202016	-0.047010	0.978253	0.814342	-0.562969	0.141113	0.544092	0.825140	0.152011
10884		10.390053	2.914978	2.034998	0.699760	-0.239267	0.082595	0.999957	0.008747	-0.002991	0.001032	-0.197156	-0.043400	0.979411	0.824206	-0.548296	0.141616	0.530861	0.835157	0.143871
10885		9.891765	2.300433	1.900113	0.361558	-0.175027	-0.001538	0.999987	0.004519	-0.002188	-0.000019	-0.194957	-0.039875	0.980001	0.829134	-0.540463	0.142953	0.523954	0.840422	0.138429
10886		9.535324	1.696509	1.709719	0.376349	-0.133150	-0.014057	0.999988	0.004704	-0.001664	-0.000176	-0.193612	-0.037003	0.980380	0.834088	-0.532334	0.144629	0.516538	0.845725	0.133930
10887		9.759199	1.845227	1.631093	0.541580	-0.075766	0.032506	0.999977	0.006770	-0.000947	0.000406	-0.191988	-0.036324	0.980725	0.842269	-0.519005	0.145660	0.503710	0.853999	0.130238
10888		9.892515	2.041961	1.431137	0.612626	0.038281	-0.004045	0.999971	0.007658	0.000479	-0.000051	-0.192598	-0.037446	0.980563	0.850541	-0.504718	0.147785	0.489373	0.862472	0.129057
10889		9.785121	2.102904	1.332592	0.631978	0.116158	-0.084398	0.999967	0.007900	0.001452	-0.001055	-0.195797	-0.039503	0.979849	0.859099	-0.488728	0.151965	0.472876	0.871541	0.129628
10890		9.607076	2.211380	1.378178	0.563956	0.086601	-0.142536	0.999973	0.007049	0.001082	-0.001782	-0.199934	-0.039937	0.978995	0.865539	-0.475476	0.157367	0.459204	0.878822	0.129631
10891		9.544542	2.168435	1.415586	0.417958	-0.037067	-0.150883	0.999984	0.005224	-0.000463	-0.001886	-0.202771	-0.038024	0.978488	0.871104	-0.463431	0.162509	0.447282	0.885317	0.127093
10892		9.494856	2.059251	1.301892	0.317066	-0.112644	-0.114374	0.999990	0.003963	-0.001408	-0.001430	-0.204169	-0.033927	0.978348	0.873438	-0.457619	0.166406	0.442065	0.888501	0.123065
10893		9.493009	2.029458	1.231783	0.295652	-0.083873	-0.116009	0.999992	0.003696	-0.001048	-0.001450	-0.205993	-0.030022	0.978093	0.874558	-0.454052	0.170251	0.438994	0.890469	0.119788
10894		9.507000	2.035572	1.277341	0.256502	-0.021258	-0.185155	0.999992	0.003206	-0.000266	-0.002314	-0.209919	-0.027459	0.977333	0.876476	-0.448254	0.175662	0.433270	0.893484	0.118164
10895		9.530112	1.756277	1.255659	0.205212	0.011787	-0.237028	0.999992	0.002565	0.000147	-0.002963	-0.215376	-0.024811	0.976216	0.876956	-0.444703	0.182175	0.429606	0.895334	0.117536
10896		9.499022	1.642161	1.189046	0.135802	0.068767	-0.256326	0.999993	0.001698	0.000860	-0.003204	-0.221792	-0.023893	0.974801	0.877815	-0.440164	0.188936	0.424558	0.897599	0.118599
10897		9.601241	1.396166	1.088789	0.030076	0.101687	-0.277442	0.999993	0.000376	0.001271	-0.003468	-0.229037	-0.023166	0.973142	0.876662	-0.439430	0.195869	0.423091	0.897978	0.120954
10898		9.760043	1.258742	1.120584	-0.004493	0.097847	-0.260493	0.999994	-0.000056	0.001223	-0.003256	-0.235823	-0.022734	0.971530	0.875514	-0.438830	0.202248	0.421738	0.898283	0.123390
10899		9.845418	1.164270	1.038026	-0.086039	0.074037	-0.203627	0.999996	-0.001075	0.000925	-0.002545	-0.241159	-0.021507	0.970247	0.872141	-0.443333	0.206947	0.425691	0.896099	0.125671
10900		9.943044	1.035665	0.848683	-0.126814	0.080495	-0.117510	0.999997	-0.001585	0.001006	-0.001469	-0.244586	-0.022135	0.969375	0.870209	-0.445977	0.209382	0.427685	0.894770	0.128342
10901		10.002312	0.826288	0.757379	-0.026079	0.101944	-0.080834	0.999999	-0.000326	0.001274	-0.001010	-0.247399	-0.023763	0.968622	0.869767	-0.445977	0.211209	0.426965	0.894729	0.131003
10902		9.916374	0.951462	0.672157	0.139880	0.115574	-0.048963	0.999997	0.001749	0.001445	-0.000612	-0.249622	-0.026011	0.967994	0.871196	-0.442432	0.212771	0.422737	0.896425	0.133102
10903		9.713863	1.225195	0.685261	0.184291	0.102778	-0.003358	0.999997	0.002304	0.001285	-0.000042	-0.250720	-0.027989	0.967655	0.872520	-0.439531	0.213357	0.419342	0.897791	0.134620
10904		9.818734	1.115459	0.694937	0.213694	0.072689	0.001360	0.999996	0.002671	0.000909	0.000017	-0.251322	-0.029714	0.967447	0.874855	-0.434589	0.213921	0.414085	0.900139	0.135218
10905		9.714713	1.122330	0.723279	0.258836	0.048958	0.035253	0.999994	0.003235	0.000612	0.000441	-0.250842	-0.031707	0.967509	0.878603	-0.427021	0.213798	0.406368	0.903685	0.134973
10906		9.368636	1.487819	0.718360	0.181630	0.015477	0.123929	0.999996	0.002270	0.000193	0.001549	-0.248150	-0.032929	0.968162	0.880502	-0.424372	0.211248	0.403904	0.904889	0.134302
10907		9.451596	1.650671	0.681475	0.012045	-0.023579	0.152430	0.999998	0.000151	-0.000295	0.001905	-0.244404	-0.033641	0.969090	0.881027	-0.425161	0.207436	0.405040	0.904493	0.133550
10908		9.552909	1.484716	0.615238	0.022772	-0.000514	0.131711	0.999999	0.000285	-0.000006	0.001646	-0.241337	-0.034598	0.969824	0.881502	-0.425758	0.204170	0.405846	0.904175	0.133250
10909		9.391909	1.708792	0.657955	0.137434	0.020236	0.136485	0.999997	0.001718	0.000253	0.001706	-0.238348	-0.036084	0.970509	0.883250	-0.423557	0.201170	0.403807	0.905151	0.132824
10910		9.546415	2.045740	0.715318	0.093509	-0.000056	0.106272	0.999998	0.001169	-0.000001	0.001328	-0.235735	-0.037202	0.971105	0.885194	-0.420622	0.198767	0.401073	0.906473	0.132087
10911		9.927322	1.633138	0.798899	0.017503	0.003088	0.055186	1.000000	0.000219	0.000039	0.000690	-0.234273	-0.037845	0.971434	0.886174	-0.419210	0.197379	0.399765	0.907100	0.131747
10912		9.926439	1.422002	0.991950	0.103773	0.023828	0.114681	0.999998	0.001297	0.000298	0.001434	-0.231750	-0.039129	0.971988	0.887614	-0.417352	0.194832	0.398038	0.907902	0.131452
10913		9.753204	1.799798	1.194951	0.069177	0.010777	0.190714	0.999997	0.000865	0.000135	0.002384	-0.227266	-0.041594	0.972944	0.890370	-0.413554	0.190298	0.394450	0.909529	0.131020
10914		9.571483	1.909621	1.354383	-0.120862	-0.027585	0.201324	0.999996	-0.001511	-0.000345	0.002517	-0.222181	-0.043143	0.974050	0.891018	-0.414617	0.184877	0.395882	0.908973	0.130561
10915		9.694071	1.606845	1.289760	-0.202045	-0.020590	0.169556	0.999995	-0.002526	-0.000257	0.002119	-0.218040	-0.043730	0.974960	0.889106	-0.420837	0.179964	0.402429	0.906082	0.130640
10916		9.947499	1.365931	1.267806	-0.141532	0.051344	0.140562	0.999997	-0.001769	0.000642	0.001757	-0.215094	-0.046558	0.975483	0.889276	-0.422180	0.175936	0.403638	0.905316	0.132211
10917		9.954791	1.227424	1.398224	-0.034391	0.102909	0.150418	0.999997	-0.000430	0.001286	0.001880	-0.212612	-0.049895	0.975862	0.889027	-0.424319	0.171998	0.405495	0.904137	0.134574
10918		9.658007	1.264250	1.505934	0.003702	0.097250	0.175507	0.999997	0.000046	0.001216	0.002194	-0.209446	-0.053688	0.976345	0.889809	-0.424465	0.167542	0.405429	0.903851	0.136675
10919		9.546574	1.285705	1.611316	-0.052631	0.037415	0.209741	0.999996	-0.000658	0.000468	0.002622	-0.204907	-0.056547	0.977147	0.890172	-0.425842	0.162026	0.406948	0.903029	0.137595
10920		9.807150	1.389275	1.657765	-0.117787	0.021521	0.239578	0.999994	-0.001472	0.000269	0.002995	-0.199482	-0.059646	0.978084	0.890439	-0.427704	0.155525	0.409054	0.901949	0.138431
10921		10.081212	1.408378	1.601501	-0.205458	0.045651	0.233606	0.999992	-0.002568	0.000571	0.002920	-0.194471	-0.063205	0.978870	0.889549	-0.431914	0.148837	0.413380	0.899697	0.140218
10922		10.263536	1.287376	1.598263	-0.214059	0.073376	0.225623	0.999992	-0.002676	0.000917	0.002820	-0.189944	-0.067318	0.979484	0.888427	-0.436405	0.142293	0.417873	0.897228	0.142700
10923		9.905898	1.329624	1.514988	-0.169907	0.061851	0.258727	0.999992	-0.002124	0.000773	0.003234	-0.184577	-0.071571	0.980209	0.887851	-0.439859	0.135069	0.421487	0.895210	0.144732
10924		9.482682	1.470751	1.425684	-0.179878	0.019877	0.275034	0.999992	-0.002248	0.000248	0.003438	-0.178417	-0.075100	0.981085	0.887196	-0.443456	0.127397	0.425501	0.893144	0.145749
10925		9.446338	1.455456	1.416151	-0.151250	0.020078	0.243857	0.999994	-0.001891	0.000251	0.003048	-0.172976	-0.078279	0.981810	0.886622	-0.446492	0.120608	0.428929	0.891357	0.146636
10926		9.485889	1.502483	1.485683	-0.058268	0.046085	0.157158	0.999998	-0.000728	0.000576	0.001964	-0.169750	-0.081076	0.982147	0.886657	-0.447564	0.116300	0.430144	0.890569	0.147860
10927		9.704385	1.480657	1.526307	-0.037458	0.076302	0.048138	0.999999	-0.000468	0.000954	0.000602	-0.169281	-0.083328	0.982039	0.886471	-0.448328	0.114765	0.430712	0.889977	0.149761
10928		9.700252	1.217403	1.499177	-0.086375	0.128634	0.010673	0.999998	-0.001080	0.001608	0.000133	-0.170222	-0.086318	0.981618	0.885614	-0.450217	0.113984	0.432103	0.888737	0.153081
10929		9.488452	1.105520	1.506440	-0.141760	0.106120	0.042102	0.999997	-0.001772	0.001326	0.000526	-0.170243	-0.089140	0.981362	0.884264	-0.453303	0.112224	0.434850	0.886888	0.155995
10930		9.527745	1.138865	1.452088	-0.161464	0.048665	0.051770	0.999998	-0.002018	0.000608	0.000647	-0.169433	-0.090815	0.981349	0.882749	-0.456752	0.110142	0.438231	0.884946	0.157556
10931		9.671305	1.021681	1.438713	-0.151216	0.038170	0.034173	0.999998	-0.001890	0.000477	0.000427	-0.168914	-0.092037	0.981324	0.881247	-0.460025	0.108542	0.441444	0.883123	0.158811
10932		9.678249	0.973449	1.444538	-0.104828	0.056135	0.040250	0.999999	-0.001310	0.000702	0.000503	-0.168453	-0.093730	0.981243	0.880290	-0.462219	0.106970	0.443523	0.881798	0.160372
10933		9.624055	1.069851	1.403204	-0.113583	0.082093	0.051036	0.999998	-0.001420	0.001026	0.000638	-0.168050	-0.096112	0.981082	0.879278	-0.464570	0.105100	0.445680	0.880305	0.162580
10934		9.602761	1.019803	1.319553	-0.149032	0.089341	0.042185	0.999998	-0.001863	0.001117	0.000527	-0.167927	-0.098542	0.980862	0.877842	-0.467677	0.103305	0.448546	0.878389	0.165040
10935		9.569733	0.797162	1.249672	-0.106836	0.080305	0.016534	0.999999	-0.001335	0.001004	0.000207	-0.168264	-0.100456	0.980610	0.876784	-0.469874	0.102313	0.450485	0.876999	0.167141
10936		9.644668	0.860546	1.146192	-0.020954	0.059743	0.009603	1.000000	-0.000262	0.000747	0.000120	-0.168523	-0.101802	0.980427	0.876655	-0.470213	0.101862	0.450640	0.876662	0.168487
10937		9.840903	0.819061	1.103618	0.044839	0.042712	-0.025486	1.000000	0.000560	0.000534	-0.000319	-0.169318	-0.102365	0.980231	0.877165	-0.469116	0.102526	0.449347	0.877184	0.169220
10938		9.784979	0.577452	1.132154	0.175113	0.014719	-0.063838	0.999997	0.002189	0.000184	-0.000798	-0.170664	-0.101815	0.980055	0.878966	-0.465243	0.104728	0.445301	0.879308	0.168892
10939		9.655469	0.472552	1.180861	0.288304	0.011179	-0.061227	0.999993	0.003604	0.000140	-0.000765	-0.171858	-0.101244	0.979905	0.882046	-0.458784	0.107294	0.438702	0.882761	0.168148
10940		9.704603	0.568949	1.292800	0.296430	0.023881	-0.024496	0.999993	0.003705	0.000299	-0.000306	-0.172363	-0.101364	0.979804	0.885318	-0.452036	0.108977	0.431860	0.886222	0.167654
10941		9.842997	0.730318	1.329765	0.252711	0.011011	0.017906	0.999995	0.003159	0.000138	0.000224	-0.171776	-0.101678	0.979875	0.888252	-0.446135	0.109420	0.426031	0.889171	0.166951
10942		9.890453	0.750343	1.340786	0.241414	-0.006510	0.032702	0.999995	0.003018	-0.000081	0.000409	-0.170664	-0.101771	0.980059	0.891101	-0.440411	0.109440	0.420492	0.892009	0.165851
10943		9.869320	0.673132	1.376552	0.286168	-0.001799	0.037771	0.999993	0.003577	-0.000022	0.000472	-0.169462	-0.102002	0.980244	0.894393	-0.433674	0.109493	0.413937	0.895278	0.164721
10944		9.807972	0.647121	1.497279	0.360522	0.007130	0.063195	0.999990	0.004507	0.000089	0.000790	-0.167769	-0.102708	0.980461	0.898498	-0.425178	0.109205	0.405655	0.899263	0.163615
10945		9.828013	0.827134	1.580323	0.396647	0.026548	0.097958	0.999987	0.004958	0.000332	0.001224	-0.165475	-0.104252	0.980688	0.903035	-0.415721	0.108179	0.396415	0.903497	0.162935
10946		9.946703	1.048968	1.610579	0.354256	0.066003	0.109253	0.999989	0.004428	0.000825	0.001366	-0.163346	-0.106755	0.980776	0.907078	-0.407203	0.106748	0.387979	0.907077	0.163350
10947		9.765346	0.911850	1.595864	0.291266	0.090201	0.106451	0.999992	0.003641	0.001128	0.001331	-0.161451	-0.109754	0.980759	0.910418	-0.400118	0.105096	0.380885	0.909868	0.164521
10948		9.624437	0.830926	1.646577	0.292982	0.091339	0.137413	0.999991	0.003662	0.001142	0.001718	-0.158835	-0.113104	0.980805	0.913841	-0.392874	0.102685	0.373719	0.912610	0.165761
10949		9.667592	0.995735	1.737128	0.248361	0.099787	0.173783	0.999992	0.003105	0.001247	0.002172	-0.155423	-0.116987	0.980896	0.916922	-0.386544	0.099185	0.367556	0.914821	0.167346
10950		9.706151	1.194000	1.723226	0.133420	0.126592	0.200844	0.999994	0.001668	0.001582	0.002511	-0.151648	-0.121743	0.980908	0.918999	-0.382750	0.094573	0.363929	0.915796	0.169925
10951		9.742871	1.357596	1.600216	-0.040038	0.152665	0.226108	0.999994	-0.000500	0.001908	0.002826	-0.147513	-0.127317	0.980831	0.919559	-0.382833	0.088604	0.364214	0.915002	0.173548
10952		9.704929	1.365780	1.488031	-0.148498	0.154964	0.220374	0.999993	-0.001856	0.001937	0.002755	-0.143601	-0.132876	0.980675	0.919081	-0.385364	0.082366	0.366972	0.913147	0.177463
10953		9.651484	1.299735	1.389956	-0.186494	0.132643	0.181696	0.999993	-0.002331	0.001658	0.002271	-0.140363	-0.137565	0.980497	0.918108	-0.388801	0.076882	0.370641	0.910994	0.180873
10954		9.625493	1.111854	1.353785	-0.167015	0.110535	0.136030	0.999995	-0.002088	0.001382	0.001700	-0.137975	-0.141253	0.980311	0.917135	-0.391906	0.072614	0.373933	0.909097	0.183621
10955		9.648882	0.947744	1.420511	-0.091586	0.097062	0.096891	0.999998	-0.001145	0.001213	0.001211	-0.136432	-0.144229	0.980094	0.916727	-0.393383	0.069721	0.375496	0.907991	0.185888
10956		9.716515	0.956635	1.568348	-0.030061	0.074897	0.063678	0.999999	-0.000376	0.000936	0.000796	-0.135368	-0.146417	0.979917	0.916816	-0.393502	0.067855	0.375664	0.907589	0.187506
10957		9.750774	1.039361	1.588712	-0.066072	0.061878	0.041874	0.999999	-0.000826	0.000773	0.000523	-0.134700	-0.148012	0.979769	0.916472	-0.394552	0.066394	0.376743	0.906874	0.188795
10958		9.700188	0.865423	1.553854	-0.146380	0.056664	0.008358	0.999998	-0.001830	0.000708	0.000104	-0.134767	-0.149226	0.979576	0.915287	-0.397463	0.065374	0.379589	0.905403	0.190150
10959		9.706997	0.616655	1.582898	-0.120233	0.041937	-0.008415	0.999999	-0.001503	0.000524	-0.000105	-0.135004	-0.149880	0.979444	0.914281	-0.399858	0.064834	0.381921	0.904240	0.191015
10960		9.802889	0.711868	1.666298	-0.059434	0.037119	-0.017128	1.000000	-0.000743	0.000464	-0.000214	-0.135490	-0.150295	0.979313	0.913804	-0.400938	0.064895	0.382890	0.903693	0.191663
10961		9.694217	0.763950	1.633678	-0.116749	0.045536	-0.042199	0.999999	-0.001459	0.000569	-0.000527	-0.136684	-0.150673	0.979089	0.912695	-0.403384	0.065338	0.385104	0.902540	0.192655
10962		9.583056	0.491675	1.579135	-0.151402	0.036642	-0.063265	0.999998	-0.001893	0.000458	-0.000791	-0.138355	-0.150661	0.978856	0.911179	-0.406658	0.066199	0.388086	0.901072	0.193542
10963		9.608304	0.372804	1.637850	-0.072944	0.006229	-0.062603	0.999999	-0.000912	0.000078	-0.000783	-0.139643	-0.149817	0.978803	0.910363	-0.408287	0.067386	0.389537	0.900476	0.193402
10964		9.673715	0.426133	1.657273	-0.014469	-0.011543	-0.056562	1.000000	-0.000181	-0.000144	-0.000707	-0.140491	-0.148727	0.978848	0.910171	-0.408519	0.068563	0.389681	0.900551	0.192760
10965		9.676113	0.394782	1.697054	-0.017305	-0.009094	-0.044817	1.000000	-0.000216	-0.000114	-0.000560	-0.141090	-0.147758	0.978908	0.909966	-0.408826	0.069445	0.389942	0.900571	0.192137
10966		9.719255	0.342153	1.709444	-0.010195	0.000592	-0.038202	1.000000	-0.000127	0.000007	-0.000478	-0.141711	-0.147146	0.978911	0.909869	-0.408904	0.070251	0.389944	0.900636	0.191830
10967		9.702402	0.312388	1.708398	0.021294	0.003478	-0.027490	1.000000	0.000266	0.000043	-0.000344	-0.142156	-0.146860	0.978889	0.910158	-0.408142	0.070942	0.389107	0.901029	0.191686
10968		9.740781	0.349544	1.729849	0.049365	-0.001641	-0.017895	1.000000	0.000617	-0.000021	-0.000224	-0.142178	-0.146449	0.978947	0.910716	-0.406813	0.071409	0.387791	0.901696	0.191213
10969		9.810939	0.410348	1.739094	0.038829	-0.004301	-0.017670	1.000000	0.000485	-0.000054	-0.000221	-0.142177	-0.145966	0.979020	0.911156	-0.405754	0.071825	0.386758	0.902251	0.190687
10970		9.714217	0.353381	1.716730	0.007463	-0.003578	-0.000847	1.000000	0.000093	-0.000045	-0.000011	-0.141640	-0.145654	0.979144	0.911348	-0.405373	0.071531	0.386500	0.902473	0.190158
10971		9.677808	0.377876	1.747143	0.026210	-0.010680	0.030130	1.000000	0.000328	-0.000133	0.000377	-0.140525	-0.145413	0.979341	0.911780	-0.404536	0.070765	0.385888	0.902887	0.189432
10972		9.847747	0.582746	1.711966	0.047311	-0.000817	0.036837	1.000000	0.000591	-0.000010	0.000460	-0.139423	-0.145540	0.979479	0.912450	-0.403161	0.069977	0.384703	0.903482	0.189008
10973		9.707466	0.579497	1.678984	0.044030	0.019307	0.020882	1.000000	0.000550	0.000241	0.000261	-0.138780	-0.145998	0.979502	0.913044	-0.401903	0.069459	0.383524	0.903968	0.189079
10974		9.583351	0.435060	1.715493	0.087686	0.003390	0.034218	0.999999	0.001096	0.000042	0.000428	-0.137494	-0.146174	0.979657	0.914089	-0.399658	0.068659	0.381492	0.904935	0.188566
10975		9.582931	0.525360	1.789261	0.142597	-0.013401	0.056414	0.999998	0.001782	-0.000168	0.000705	-0.135622	-0.146450	0.979877	0.915808	-0.395889	0.067586	0.378025	0.906545	0.187811
10976		9.688642	0.767125	1.875007	0.143108	0.002442	0.052277	0.999998	0.001789	0.000031	0.000653	-0.134292	-0.146842	0.980001	0.917410	-0.392274	0.066937	0.374600	0.908052	0.187394
10977		9.728083	0.841329	1.872297	0.094857	0.039146	0.005794	0.999999	0.001186	0.000489	0.000072	-0.134263	-0.147582	0.979894	0.918381	-0.389965	0.067102	0.372222	0.908926	0.187895
10978		9.771239	0.706286	1.835484	0.057193	0.056601	-0.035430	0.999999	0.000715	0.000708	-0.000443	-0.134941	-0.148169	0.979713	0.918824	-0.388808	0.067752	0.370881	0.909326	0.188607
10979		9.778351	0.575582	1.756709	0.042908	0.060150	-0.028290	1.000000	0.000536	0.000752	-0.000354	-0.136049	-0.148806	0.979463	0.919090	-0.388009	0.068714	0.369816	0.909563	0.189555
10980		9.678413	0.514301	1.761003	0.072259	0.044428	0.016842	0.999999	0.000903	0.000555	0.000211	-0.135914	-0.149728	0.979341	0.919844	-0.386238	0.068607	0.367986	0.910166	0.190221
10981		9.610766	0.642613	1.757478	0.131050	0.035140	0.032255	0.999998	0.001638	0.000439	0.000403	-0.135197	-0.150829	0.979271	0.921269	-0.382896	0.068216	0.364670	0.911395	0.190720
10982		9.611975	0.847703	1.799049	0.122827	0.040460	0.009183	0.999999	0.001535	0.000506	0.000115	-0.135116	-0.151529	0.979174	0.922428	-0.380050	0.068472	0.361760	0.912469	0.191126
10983		9.624049	0.827980	1.769608	0.038333	0.052007	-0.030084	1.000000	0.000479	0.000650	-0.000376	-0.136122	-0.152374	0.978904	0.922761	-0.379090	0.069306	0.360533	0.912728	0.192207
10984		9.572730	0.626440	1.706559	-0.003486	0.058295	-0.046723	1.000000	-0.000044	0.000729	-0.000584	-0.137648	-0.152923	0.978605	0.922561	-0.379359	0.070484	0.360464	0.912525	0.193299
10985		9.632757	0.567482	1.673308	0.000774	0.045429	-0.041442	1.000000	0.000010	0.000568	-0.000518	-0.138770	-0.153071	0.978423	0.922356	-0.379682	0.071418	0.360558	0.912365	0.193874
10986		9.692194	0.602423	1.658943	-0.008718	0.032780	-0.031747	1.000000	-0.000109	0.000410	-0.000397	-0.139524	-0.153289	0.978282	0.922208	-0.379933	0.071995	0.360645	0.912225	0.194374
10987		9.730299	0.572026	1.625227	-0.019999	0.031107	-0.025245	1.000000	-0.000250	0.000389	-0.000316	-0.139901	-0.153590	0.978181	0.922002	-0.380405	0.072137	0.361025	0.911977	0.194829
10988		9.701733	0.496942	1.637129	0.013335	0.029652	-0.026322	1.000000	0.000167	0.000371	-0.000329	-0.140396	-0.153605	0.978108	0.922007	-0.380301	0.072620	0.360820	0.912018	0.195018
10989		9.710393	0.548370	1.688954	0.031760	0.008877	-0.017480	1.000000	0.000397	0.000111	-0.000218	-0.140423	-0.153388	0.978138	0.922266	-0.379625	0.072871	0.360148	0.912336	0.194773
10990		9.703459	0.517839	1.698439	0.002087	0.001166	-0.012921	1.000000	0.000026	0.000015	-0.000162	-0.140478	-0.153074	0.978179	0.922281	-0.379555	0.073054	0.360090	0.912418	0.194496
10991		9.665652	0.464651	1.706352	-0.019109	0.005821	0.002529	1.000000	-0.000239	0.000073	0.000032	-0.140190	-0.152529	0.978306	0.921976	-0.380340	0.072819	0.360981	0.912182	0.193948
10992		9.711994	0.467450	1.696950	-0.007074	0.001281	0.012682	1.000000	-0.000088	0.000016	0.000159	-0.139160	-0.152224	0.978500	0.921904	-0.380689	0.071888	0.361561	0.912087	0.193312
10993		9.778944	0.481072	1.692380	-0.001409	0.002524	0.007848	1.000000	-0.000018	0.000032	0.000098	-0.138777	-0.151863	0.978611	0.921858	-0.380851	0.071628	0.361828	0.912080	0.192849
10994		9.726168	0.437811	1.711177	-0.001166	-0.003349	0.017509	1.000000	-0.000015	-0.000042	0.000219	-0.138134	-0.151469	0.978762	0.921848	-0.380967	0.071145	0.362099	0.912097	0.192256
10995		9.710666	0.440922	1.734832	0.005339	-0.006211	0.031871	1.000000	0.000067	-0.000078	0.000398	-0.136908	-0.151620	0.978911	0.922107	-0.380547	0.070022	0.361905	0.912248	0.191910
10996		9.669617	0.447241	1.773138	0.006863	-0.012015	0.041997	1.000000	0.000086	-0.000150	0.000525	-0.135368	-0.151421	0.979156	0.922294	-0.380337	0.068690	0.362008	0.912368	0.191140
10997		9.797153	0.569235	1.776380	0.017794	-0.007731	0.054153	1.000000	0.000222	-0.000097	0.000677	-0.133556	-0.151676	0.979366	0.922722	-0.379591	0.067044	0.361589	0.912636	0.190652
10998		9.792562	0.603669	1.756280	0.000669	0.007628	0.038069	1.000000	0.000008	0.000095	0.000476	-0.132561	-0.151978	0.979454	0.922870	-0.379408	0.066032	0.361577	0.912662	0.190551
10999		9.638252	0.418397	1.806359	0.022959	-0.006024	0.036304	1.000000	0.000287	-0.000075	0.000454	-0.131509	-0.151766	0.979629	0.923140	-0.378890	0.065227	0.361272	0.912913	0.189928
11000		9.619948	0.555221	1.858395	0.029149	-0.021440	0.071304	1.000000	0.000364	-0.000268	0.000891	-0.129343	-0.151276	0.979993	0.923468	-0.378389	0.063473	0.361216	0.913202	0.188640
11001		9.714299	0.618650	1.833675	-0.019091	0.013536	0.067888	1.000000	-0.000239	0.000169	0.000849	-0.127552	-0.152169	0.980089	0.923593	-0.378418	0.061446	0.361533	0.913042	0.188810
11002		9.694554	0.566535	1.810994	-0.006395	0.042700	0.057763	1.000000	-0.000080	0.000534	0.000722	-0.126122	-0.153510	0.980065	0.923734	-0.378367	0.059608	0.361674	0.912838	0.189523
11003		9.711619	0.632285	1.805343	0.028909	0.025016	0.046991	1.000000	0.000361	0.000313	0.000587	-0.124958	-0.154202	0.980106	0.924100	-0.377662	0.058399	0.361143	0.913013	0.189690
11004		9.695059	0.620094	1.806528	0.018882	0.003965	0.040574	1.000000	0.000236	0.000050	0.000507	-0.123498	-0.154435	0.980254	0.924391	-0.377158	0.057040	0.360902	0.913182	0.189336
11005		9.677243	0.563150	1.831632	0.023143	-0.002515	0.044438	1.000000	0.000289	-0.000031	0.000555	-0.121952	-0.154709	0.980404	0.924782	-0.376407	0.055636	0.360424	0.913445	0.188976
11006		9.720075	0.615836	1.828658	0.036431	0.012189	0.041591	1.000000	0.000455	0.000152	0.000520	-0.120958	-0.155124	0.980462	0.925238	-0.375416	0.054749	0.359588	0.913783	0.188937
11007		9.669535	0.690759	1.809259	0.023882	0.030720	0.019050	1.000000	0.000299	0.000384	0.000238	-0.120626	-0.155915	0.980377	0.925571	-0.374660	0.054298	0.358842	0.913959	0.189504
11008		9.628083	0.576979	1.771148	0.014017	0.027948	-0.001952	1.000000	0.000175	0.000349	-0.000024	-0.120580	-0.156087	0.980356	0.925583	-0.374644	0.054195	0.358826	0.913936	0.189646
11009		9.639293	0.537559	1.775741	0.019226	0.011029	-0.003449	1.000000	0.000240	0.000138	-0.000043	-0.120520	-0.156135	0.980355	0.925763	-0.374197	0.054213	0.358382	0.914111	0.189643
11010		9.760132	0.540835	1.770882	0.021181	0.009455	-0.008298	1.000000	0.000265	0.000118	-0.000104	-0.120191	-0.155908	0.980432	0.925865	-0.373971	0.054033	0.358229	0.914242	0.189298
11011		9.791039	0.532896	1.764521	0.019521	0.021222	-0.014688	1.000000	0.000244	0.000265	-0.000184	-0.120184	-0.155847	0.980443	0.925911	-0.373851	0.054073	0.358112	0.914302	0.189231
11012		9.753385	0.528444	1.749736	0.013869	0.025213	-0.013323	1.000000	0.000173	0.000315	-0.000167	-0.120209	-0.156024	0.980411	0.925964	-0.373723	0.054059	0.357968	0.914324	0.189397
11013		9.680845	0.532900	1.727685	0.015861	0.014719	-0.021276	1.000000	0.000198	0.000184	-0.000266	-0.120599	-0.156068	0.980356	0.926089	-0.373349	0.054488	0.357511	0.914469	0.189559
11014		9.718921	0.504477	1.740438	0.016265	-0.001671	-0.028443	1.000000	0.000203	-0.000021	-0.000356	-0.120778	-0.155762	0.980383	0.926244	-0.372910	0.054861	0.357049	0.914700	0.189314
11015		9.716927	0.458907	1.727804	0.000725	-0.001046	-0.021860	1.000000	0.000009	-0.000013	-0.000273	-0.120950	-0.155098	0.980467	0.926105	-0.373203	0.055208	0.357351	0.914693	0.188776
11016		9.687223	0.429773	1.729220	-0.015067	0.004589	-0.006108	1.000000	-0.000188	0.000057	-0.000076	-0.120702	-0.155321	0.980462	0.926100	-0.373267	0.054878	0.357450	0.914630	0.188897
11017		9.632120	0.497451	1.714894	-0.019447	-0.000933	-0.000513	1.000000	-0.000243	-0.000012	-0.000006	-0.120304	-0.155282	0.980517	0.926009	-0.373553	0.054457	0.357819	0.914519	0.188733
11018		9.696588	0.523375	1.720015	-0.014781	-0.004727	-0.020966	1.000000	-0.000185	-0.000059	-0.000262	-0.120282	-0.154487	0.980646	0.925705	-0.374287	0.054579	0.358611	0.914354	0.188029
11019		9.741594	0.452527	1.685985	0.010389	0.002873	-0.036998	1.000000	0.000130	0.000036	-0.000462	-0.120687	-0.153773	0.980708	0.925599	-0.374460	0.055190	0.358749	0.914403	0.187525
11020		9.745482	0.447416	1.717506	0.027758	-0.001828	-0.036706	1.000000	0.000347	-0.000023	-0.000459	-0.121363	-0.152843	0.980770	0.925627	-0.374237	0.056218	0.358448	0.914651	0.186894
11021		9.672611	0.388045	1.744053	0.021412	-0.015942	-0.031343	1.000000	0.000268	-0.000199	-0.000392	-0.121875	-0.151940	0.980847	0.925728	-0.373853	0.057114	0.358014	0.914958	0.186219
11022		9.766160	0.446372	1.757006	0.015578	-0.020009	-0.016197	1.000000	0.000195	-0.000250	-0.000202	-0.121985	-0.150943	0.980987	0.925770	-0.373669	0.057623	0.357867	0.915198	0.185321
11023		9.784458	0.413499	1.800173	0.015374	0.000802	-0.025674	1.000000	0.000192	0.000010	-0.000321	-0.122119	-0.150550	0.981031	0.925840	-0.373448	0.057939	0.357641	0.915353	0.184991
11024		9.665906	0.386833	1.824844	0.013242	-0.001017	-0.025320	1.000000	0.000166	-0.000013	-0.000316	-0.122528	-0.149655	0.981117	0.925719	-0.373642	0.058616	0.357814	0.915421	0.184320
11025		9.660572	0.373012	1.845628	-0.008572	-0.013194	-0.007641	1.000000	-0.000107	-0.000165	-0.000096	-0.122534	-0.149278	0.981174	0.925701	-0.373665	0.058756	0.357859	0.915473	0.183973
11026		9.723053	0.332893	1.811590	-0.019071	0.006571	0.005340	1.000000	-0.000238	0.000082	0.000067	-0.122183	-0.149468	0.981188	0.925635	-0.373897	0.058308	0.358148	0.915347	0.184037
11027		9.721372	0.384072	1.798617	0.013065	0.026430	0.012220	1.000000	0.000163	0.000330	0.000153	-0.121992	-0.150121	0.981112	0.925829	-0.373471	0.057973	0.357714	0.915414	0.184547
11028		9.750934	0.490378	1.786305	0.018346	0.014566	0.003592	1.000000	0.000229	0.000182	0.000045	-0.121929	-0.150191	0.981110	0.925954	-0.373164	0.057949	0.357411	0.915528	0.184570
11029		9.790884	0.464237	1.774726	-0.014621	0.008751	0.004278	1.000000	-0.000183	0.000109	0.000053	-0.121550	-0.150232	0.981150	0.925829	-0.373542	0.057501	0.357863	0.915367	0.184493
11030		9.723012	0.339283	1.786925	-0.023788	0.009551	0.019248	1.000000	-0.000297	0.000119	0.000241	-0.120957	-0.150541	0.981176	0.925711	-0.373950	0.056744	0.358368	0.915150	0.184589
11031		9.674801	0.411172	1.793967	0.004829	0.010555	0.036712	1.000000	0.000060	0.000132	0.000459	-0.120037	-0.150872	0.981238	0.925840	-0.373775	0.055790	0.358345	0.915167	0.184550
11032		9.700730	0.568280	1.787035	0.000006	0.020642	0.027237	1.000000	0.000000	0.000258	0.000340	-0.118992	-0.151375	0.981288	0.925894	-0.373816	0.054609	0.358555	0.915067	0.184639
11033		9.693882	0.549068	1.720327	-0.025140	0.022448	0.010424	1.000000	-0.000314	0.000281	0.000130	-0.118327	-0.151919	0.981285	0.925719	-0.374386	0.053665	0.359226	0.914744	0.184934
11034		9.681153	0.420529	1.707272	-0.003921	0.018141	0.009883	1.000000	-0.000049	0.000227	0.000124	-0.117816	-0.152294	0.981288	0.925729	-0.374451	0.053032	0.359368	0.914654	0.185099
11035		9.696700	0.450869	1.724051	0.032722	0.011386	0.017352	1.000000	0.000409	0.000142	0.000217	-0.117222	-0.152664	0.981301	0.926136	-0.373515	0.052523	0.358512	0.914976	0.185172
11036		9.675716	0.544606	1.767971	0.015252	0.004384	0.018266	1.000000	0.000191	0.000055	0.000228	-0.116647	-0.152632	0.981375	0.926274	-0.373239	0.052049	0.358343	0.915094	0.184916
11037		9.727608	0.506372	1.767253	-0.003695	0.012360	0.003858	1.000000	-0.000046	0.000155	0.000048	-0.116141	-0.152352	0.981479	0.926061	-0.373835	0.051554	0.359057	0.914897	0.184504
11038		9.713321	0.464287	1.748671	0.001094	0.030280	-0.000806	1.000000	0.000014	0.000378	-0.000010	-0.116306	-0.152737	0.981399	0.926035	-0.373901	0.051554	0.359072	0.914806	0.184927
11039		9.714629	0.478761	1.716591	0.003867	0.024874	0.001543	1.000000	0.000048	0.000311	0.000019	-0.116079	-0.152969	0.981390	0.925999	-0.374034	0.051227	0.359237	0.914713	0.185066
11040		9.692125	0.450061	1.701073	-0.002283	0.005434	0.006044	1.000000	-0.000029	0.000068	0.000076	-0.116063	-0.153008	0.981386	0.926026	-0.373970	0.051210	0.359174	0.914732	0.185093
11041		9.697316	0.415392	1.748466	0.010063	-0.002319	0.008165	1.000000	0.000126	-0.000029	0.000102	-0.115476	-0.152941	0.981465	0.926170	-0.373676	0.050740	0.358990	0.914863	0.184800
11042		9.718333	0.437181	1.781090	0.019804	0.007961	0.007223	1.000000	0.000248	0.000100	0.000090	-0.115064	-0.152792	0.981537	0.926271	-0.373466	0.050449	0.358863	0.914974	0.184499
11043		9.714455	0.498460	1.777448	0.010656	0.018169	0.004994	1.000000	0.000133	0.000227	0.000062	-0.114660	-0.153217	0.981518	0.926426	-0.373144	0.049976	0.358591	0.915034	0.184729
11044		9.703620	0.460391	1.773414	0.002905	0.011129	-0.003783	1.000000	0.000036	0.000139	-0.000047	-0.114700	-0.153230	0.981511	0.926427	-0.373139	0.050010	0.358577	0.915035	0.184755
11045		9.746699	0.439254	1.777830	-0.000322	0.008120	-0.002814	1.000000	-0.000004	0.000101	-0.000035	-0.114847	-0.153248	0.981491	0.926438	-0.373093	0.050151	0.358501	0.915050	0.184824
11046		9.674739	0.422763	1.820753	-0.001052	0.009204	0.003370	1.000000	-0.000013	0.000115	0.000042	-0.114568	-0.153059	0.981553	0.926323	-0.373411	0.049893	0.358886	0.914952	0.184563
11047		9.738281	0.498528	1.811365	-0.002547	0.005590	0.010384	1.000000	-0.000032	0.000070	0.000130	-0.114322	-0.153171	0.981565	0.926351	-0.373377	0.049626	0.358892	0.914947	0.184575
11048		9.802690	0.550080	1.780505	-0.028239	0.029501	-0.012730	1.000000	-0.000353	0.000369	-0.000159	-0.114499	-0.153236	0.981534	0.925923	-0.374447	0.049554	0.359939	0.914499	0.184759
11049		9.693240	0.349819	1.762618	-0.011379	0.019461	-0.021013	1.000000	-0.000142	0.000243	-0.000263	-0.114842	-0.153503	0.981452	0.925828	-0.374658	0.049735	0.360075	0.914368	0.185144
11050		9.650718	0.345187	1.832717	0.028129	-0.003713	0.002050	1.000000	0.000352	-0.000046	0.000026	-0.114363	-0.153217	0.981553	0.926061	-0.374113	0.049499	0.359628	0.914639	0.184673
11051		9.668432	0.487927	1.828902	0.005627	0.010525	0.009373	1.000000	0.000070	0.000132	0.000117	-0.113911	-0.153299	0.981592	0.926095	-0.374088	0.049048	0.359683	0.914635	0.184582
11052		9.683660	0.478593	1.809362	-0.008770	0.030798	-0.010775	1.000000	-0.000110	0.000385	-0.000135	-0.114228	-0.153597	0.981509	0.925909	-0.374537	0.049146	0.360062	0.914402	0.184999
11053		9.704874	0.395401	1.749215	0.007257	0.033183	-0.024590	1.000000	0.000091	0.000415	-0.000307	-0.114809	-0.153969	0.981383	0.925901	-0.374501	0.049563	0.359897	0.914354	0.185556
11054		9.705284	0.387497	1.758440	0.025334	0.023533	-0.015274	1.000000	0.000317	0.000294	-0.000191	-0.115097	-0.154416	0.981279	0.926161	-0.373824	0.049807	0.359135	0.914555	0.186041
11055		9.700567	0.359553	1.786999	0.021364	0.007630	-0.004019	1.000000	0.000267	0.000095	-0.000050	-0.114834	-0.154514	0.981294	0.926385	-0.373294	0.049630	0.358643	0.914755	0.186006
11056		9.722346	0.458751	1.805538	0.014361	0.015878	0.002498	1.000000	0.000180	0.000198	0.000031	-0.114580	-0.154691	0.981296	0.926509	-0.373018	0.049381	0.358402	0.914838	0.186063
11057		9.743998	0.437038	1.752967	-0.006509	0.030863	-0.003237	1.000000	-0.000081	0.000386	-0.000040	-0.114666	-0.155354	0.981181	0.926505	-0.373050	0.049210	0.358385	0.914712	0.186712
11058		9.714774	0.325587	1.673022	0.033847	0.036142	-0.000808	1.000000	0.000423	0.000452	-0.000010	-0.114862	-0.155958	0.981063	0.926795	-0.372314	0.049322	0.357571	0.914910	0.187306
11059		9.662760	0.392117	1.722561	0.085648	0.026766	0.008105	0.999999	0.001071	0.000335	0.000101	-0.114706	-0.156646	0.980971	0.927664	-0.370137	0.049367	0.355361	0.915675	0.187772
11060		9.661441	0.477933	1.800740	0.050814	0.001313	0.011948	1.000000	0.000635	0.000016	0.000149	-0.114111	-0.156644	0.981041	0.928163	-0.368928	0.049053	0.354249	0.916163	0.187490
11061		9.711507	0.496654	1.833554	-0.005551	-0.002169	0.009607	1.000000	-0.000069	-0.000027	0.000120	-0.113669	-0.156341	0.981141	0.928065	-0.369223	0.048686	0.354648	0.916096	0.187064
11062		9.728620	0.489123	1.797664	-0.030793	0.012441	0.005964	1.000000	-0.000385	0.000156	0.000075	-0.113406	-0.156501	0.981146	0.927800	-0.369947	0.048231	0.355423	0.915777	0.187156
11063		9.696340	0.443322	1.746067	-0.025618	0.013456	0.004727	1.000000	-0.000320	0.000168	0.000059	-0.113121	-0.156821	0.981127	0.927641	-0.370408	0.047749	0.355930	0.915535	0.187375
11064		9.665789	0.427408	1.733017	0.007604	-0.000046	0.007464	1.000000	0.000095	-0.000001	0.000093	-0.112720	-0.156615	0.981206	0.927680	-0.370348	0.047458	0.355955	0.915595	0.187034
11065		9.659539	0.516509	1.801114	0.025396	-0.010853	0.009529	1.000000	0.000317	-0.000136	0.000119	-0.112219	-0.156282	0.981317	0.927930	-0.369750	0.047229	0.355460	0.915894	0.186512
11066		9.699731	0.598055	1.832822	-0.010827	-0.001429	0.002878	1.000000	-0.000135	-0.000018	0.000036	-0.112109	-0.156046	0.981367	0.927816	-0.370047	0.047150	0.355794	0.915814	0.186268
11067		9.705918	0.483915	1.793451	-0.036004	0.013611	-0.005342	1.000000	-0.000450	0.000170	-0.000067	-0.112073	-0.156097	0.981363	0.927454	-0.370984	0.046907	0.356748	0.915426	0.186350
11068		9.669430	0.433055	1.738892	0.000704	0.016872	-0.006080	1.000000	0.000009	0.000211	-0.000076	-0.111961	-0.156168	0.981364	0.927376	-0.371201	0.046731	0.356986	0.915326	0.186387
11069		9.652260	0.510256	1.775018	0.022477	0.003719	-0.007129	1.000000	0.000281	0.000046	-0.000089	-0.111895	-0.155979	0.981402	0.927546	-0.370764	0.046827	0.356564	0.915535	0.186165
11070		9.710665	0.519756	1.803379	0.006171	-0.005905	-0.013383	1.000000	0.000077	-0.000074	-0.000167	-0.111895	-0.155403	0.981493	0.927484	-0.370895	0.047012	0.356725	0.915580	0.185635
11071		9.734860	0.430244	1.777739	-0.003258	0.002920	-0.020707	1.000000	-0.000041	0.000037	-0.000259	-0.111954	-0.155382	0.981490	0.927509	-0.370822	0.047091	0.356641	0.915613	0.185633
11072		9.674001	0.395560	1.804391	0.022446	0.007439	-0.010300	1.000000	0.000281	0.000093	-0.000129	-0.112129	-0.155115	0.981512	0.927619	-0.370507	0.047418	0.356302	0.915786	0.185432
11073		9.782611	0.565045	1.779150	0.009206	0.007755	-0.013292	1.000000	0.000115	0.000097	-0.000166	-0.112230	-0.155086	0.981505	0.927696	-0.370293	0.047568	0.356068	0.915877	0.185430
11074		9.726840	0.343465	1.781937	-0.003692	0.007133	-0.033159	1.000000	-0.000046	0.000089	-0.000414	-0.113068	-0.154826	0.981450	0.927606	-0.370406	0.048433	0.356037	0.915876	0.185499
11075		9.613310	0.318078	1.849085	0.030701	-0.019531	-0.007246	1.000000	0.000384	-0.000244	-0.000091	-0.112779	-0.154222	0.981579	0.927886	-0.369694	0.048525	0.355400	0.916265	0.184794
11076		9.698543	0.432518	1.892886	-0.004952	-0.011306	0.001582	1.000000	-0.000062	-0.000141	0.000020	-0.112449	-0.153863	0.981673	0.927877	-0.369739	0.048335	0.355526	0.916307	0.184343
11077		9.763736	0.418143	1.851832	-0.029950	0.037167	-0.002012	1.000000	-0.000374	0.000465	-0.000025	-0.112779	-0.154542	0.981528	0.927617	-0.370401	0.048265	0.356100	0.915926	0.185129
11078		9.750759	0.396918	1.756681	-0.006044	0.038956	-0.008125	1.000000	-0.000076	0.000487	-0.000102	-0.113079	-0.155267	0.981379	0.927561	-0.370542	0.048253	0.356150	0.915746	0.185920
11079		9.735046	0.404728	1.734496	0.004087	0.009544	-0.000734	1.000000	0.000051	0.000119	-0.000009	-0.112854	-0.155019	0.981444	0.927449	-0.370846	0.048070	0.356513	0.915665	0.185624
11080		9.717756	0.407839	1.771766	-0.008062	-0.010074	0.013555	1.000000	-0.000101	-0.000126	0.000169	-0.112490	-0.154770	0.981525	0.927427	-0.370938	0.047799	0.356687	0.915670	0.185265
11081		9.721379	0.442088	1.785071	-0.011934	-0.000259	0.019388	1.000000	-0.000149	-0.000003	0.000242	-0.111656	-0.154914	0.981598	0.927428	-0.371045	0.046937	0.356946	0.915602	0.185101
11082		9.702775	0.472067	1.754436	-0.000733	0.021232	0.008769	1.000000	-0.000009	0.000265	0.000110	-0.111386	-0.155226	0.981579	0.927403	-0.371157	0.046544	0.357095	0.915504	0.185299
11083		9.657379	0.476560	1.742075	0.005779	0.011819	-0.004377	1.000000	0.000072	0.000148	-0.000055	-0.111469	-0.155319	0.981555	0.927463	-0.370996	0.046621	0.356912	0.915553	0.185407
11084		9.716073	0.418642	1.762410	0.009187	-0.005381	-0.002587	1.000000	0.000115	-0.000067	-0.000032	-0.111282	-0.155067	0.981616	0.927571	-0.370731	0.046591	0.356691	0.915703	0.185091
11085		9.764187	0.429936	1.819902	0.015640	-0.007868	0.003542	1.000000	0.000195	-0.000098	0.000044	-0.110845	-0.154679	0.981727	0.927677	-0.370494	0.046368	0.356551	0.915865	0.184559
11086		9.699725	0.483016	1.848529	0.011046	0.002062	0.005312	1.000000	0.000138	0.000026	0.000066	-0.110585	-0.154483	0.981787	0.927723	-0.370398	0.046213	0.356513	0.915937	0.184278
11087		9.693680	0.487490	1.844056	-0.005343	0.010184	0.001414	1.000000	-0.000067	0.000127	0.000018	-0.110250	-0.154637	0.981801	0.927699	-0.370508	0.045818	0.356680	0.915866	0.184305
11088		9.690754	0.454011	1.820140	-0.002554	0.017916	-0.006888	1.000000	-0.000032	0.000224	-0.000086	-0.110468	-0.154945	0.981727	0.927720	-0.370442	0.045925	0.356557	0.915841	0.184668
11089		9.708339	0.444437	1.828979	0.002616	0.015019	-0.002657	1.000000	0.000033	0.000188	-0.000033	-0.110279	-0.155161	0.981715	0.927751	-0.370393	0.045676	0.356533	0.915824	0.184797
11090		9.710722	0.448859	1.848074	0.008921	0.008764	-0.002406	1.000000	0.000112	0.000110	-0.000030	-0.110207	-0.155242	0.981710	0.927852	-0.370147	0.045628	0.356294	0.915910	0.184834
11091		9.700431	0.447384	1.841266	0.016580	0.012709	-0.006376	1.000000	0.000207	0.000159	-0.000080	-0.110207	-0.155308	0.981699	0.927969	-0.369849	0.045663	0.355989	0.916019	0.184881
11092		9.709579	0.464313	1.880404	0.002617	0.015022	-0.002666	1.000000	0.000033	0.000188	-0.000033	-0.110173	-0.155612	0.981655	0.928046	-0.369670	0.045556	0.355800	0.916040	0.185143
11093		9.672920	0.477971	1.835347	-0.024796	0.018913	0.000632	1.000000	-0.000310	0.000236	0.000008	-0.110167	-0.155916	0.981608	0.927841	-0.370210	0.045329	0.356334	0.915770	0.185450
11094		9.694285	0.486220	1.794172	-0.013339	0.026061	-0.007887	1.000000	-0.000167	0.000326	-0.000099	-0.110307	-0.156187	0.981549	0.927643	-0.370715	0.045260	0.356806	0.915520	0.185778
11095		9.699405	0.465241	1.741553	0.008097	0.036463	-0.025289	1.000000	0.000101	0.000456	-0.000316	-0.111030	-0.156573	0.981406	0.927611	-0.370731	0.045798	0.356666	0.915447	0.186401
11096		9.715813	0.413637	1.729686	0.003686	0.030088	-0.026219	1.000000	0.000046	0.000376	-0.000328	-0.111732	-0.156776	0.981294	0.927537	-0.370843	0.046364	0.356637	0.915367	0.186850
11097		9.587316	0.362576	1.762115	0.010537	0.000913	-0.001329	1.000000	0.000132	0.000011	-0.000017	-0.111689	-0.156565	0.981332	0.927598	-0.370684	0.046433	0.356495	0.915467	0.186631
11098		9.765398	0.591987	1.785713	0.012390	-0.003606	-0.005493	1.000000	0.000155	-0.000045	-0.000069	-0.111605	-0.156257	0.981391	0.927684	-0.370457	0.046513	0.356295	0.915612	0.186302
11099		9.764742	0.462280	1.783482	-0.011646	0.030580	-0.045171	1.000000	-0.000146	0.000382	-0.000565	-0.112797	-0.156272	0.981252	0.927412	-0.371009	0.047522	0.356627	0.915386	0.186777
11100		9.665482	0.275114	1.732335	-0.009703	0.018780	-0.024235	1.000000	-0.000121	0.000235	-0.000303	-0.113245	-0.156420	0.981177	0.927315	-0.371210	0.047850	0.356738	0.915279	0.187088
11101		9.632590	0.352483	1.751053	-0.006400	-0.015455	0.018556	1.000000	-0.000080	-0.000193	0.000232	-0.112381	-0.156021	0.981340	0.927281	-0.371386	0.047145	0.357100	0.915276	0.186412
11102		9.658008	0.498808	1.804703	0.012403	-0.010183	0.007403	1.000000	0.000155	-0.000127	0.000093	-0.111839	-0.155742	0.981446	0.927440	-0.371030	0.046808	0.356856	0.915468	0.185937
11103		9.706156	0.688338	1.935439	-0.040448	-0.002018	-0.022232	1.000000	-0.000506	-0.000025	-0.000278	-0.112186	-0.155403	0.981460	0.927062	-0.371941	0.047075	0.357729	0.915156	0.185795
11104		9.769397	0.489548	1.765728	-0.155373	0.013364	-0.037690	0.999998	-0.001942	0.000167	-0.000471	-0.112927	-0.155108	0.981422	0.925500	-0.375808	0.047099	0.361521	0.913624	0.185991
11105		9.679445	0.163557	1.686045	-0.093775	0.015468	-0.010161	0.999999	-0.001172	0.000193	-0.000127	-0.112984	-0.154974	0.981437	0.924492	-0.378331	0.046688	0.364073	0.912605	0.186017
11106		9.643141	0.393778	1.667563	0.008499	-0.010153	0.013343	1.000000	0.000106	-0.000127	0.000167	-0.112484	-0.154789	0.981523	0.924646	-0.377995	0.046355	0.363836	0.912776	0.185644
11107		9.696323	0.523285	1.790398	0.009551	-0.023376	-0.003309	1.000000	0.000119	-0.000292	-0.000041	-0.112133	-0.154054	0.981679	0.924713	-0.377835	0.046332	0.363775	0.912967	0.184824
11108		9.720625	0.416249	1.829664	0.009551	-0.000661	-0.011821	1.000000	0.000119	-0.000008	-0.000148	-0.112359	-0.153846	0.981686	0.924815	-0.377542	0.046683	0.363446	0.913123	0.184700
11109		9.690085	0.404621	1.816277	0.000610	0.015112	-0.007178	1.000000	0.000008	0.000189	-0.000090	-0.112673	-0.153880	0.981645	0.924769	-0.377622	0.046950	0.363466	0.913084	0.184851
11110		9.689843	0.415945	1.763658	-0.007480	0.004279	0.003505	1.000000	-0.000093	0.000053	0.000044	-0.112280	-0.153926	0.981682	0.924747	-0.377726	0.046541	0.363643	0.913033	0.184753
11111		9.710278	0.390971	1.770600	0.004656	-0.007988	0.003033	1.000000	0.000058	-0.000100	0.000038	-0.111943	-0.153549	0.981780	0.924773	-0.377682	0.046374	0.363680	0.913115	0.184277
11112		9.712677	0.447567	1.768279	0.014031	-0.004413	0.002879	1.000000	0.000175	-0.000055	0.000036	-0.111695	-0.153448	0.981824	0.924985	-0.377175	0.046281	0.363218	0.913341	0.184066
11113		9.746629	0.470325	1.787006	0.001671	0.007051	-0.002551	1.000000	0.000021	0.000088	-0.000032	-0.111620	-0.153450	0.981832	0.925011	-0.377118	0.046221	0.363174	0.913365	0.184037
11114		9.709217	0.409976	1.756061	-0.009328	0.011001	-0.004868	1.000000	-0.000117	0.000138	-0.000061	-0.111548	-0.153424	0.981844	0.924873	-0.377474	0.046091	0.363549	0.913222	0.184004
11115		9.701125	0.358015	1.752052	0.004450	-0.001406	0.005862	1.000000	0.000056	-0.000018	0.000073	-0.111100	-0.153429	0.981894	0.925007	-0.377189	0.045724	0.363344	0.913339	0.183828
11116		9.704277	0.418929	1.818828	0.014463	-0.008466	0.013048	1.000000	0.000181	-0.000106	0.000163	-0.110398	-0.153085	0.982027	0.925105	-0.377007	0.045229	0.363308	0.913472	0.183240
11117		9.710657	0.480621	1.820410	-0.024467	-0.000975	0.013814	1.000000	-0.000306	-0.000012	0.000173	-0.109836	-0.153026	0.982099	0.924918	-0.377540	0.044614	0.363954	0.913262	0.183004
11118		9.705736	0.426879	1.751723	-0.047146	0.013423	0.009577	1.000000	-0.000589	0.000168	0.000120	-0.109583	-0.153369	0.982074	0.924582	-0.378425	0.044070	0.364882	0.912838	0.183272
11119		9.680894	0.392392	1.719755	-0.010690	0.016649	0.005987	1.000000	-0.000134	0.000208	0.000075	-0.109426	-0.153637	0.982050	0.924495	-0.378674	0.043771	0.365151	0.912689	0.183473
11120		9.700054	0.432872	1.739079	0.016146	0.001820	0.002216	1.000000	0.000202	0.000023	0.000028	-0.109212	-0.153470	0.982100	0.924607	-0.378410	0.043685	0.364932	0.912827	0.183226
11121		9.771180	0.469045	1.764883	0.007458	-0.008228	0.001953	1.000000	0.000093	-0.000103	0.000024	-0.108928	-0.153000	0.982204	0.924603	-0.378430	0.043591	0.365026	0.912897	0.182686
11122		9.667084	0.380000	1.788554	0.008896	-0.003167	0.010303	1.000000	0.000111	-0.000040	0.000129	-0.108494	-0.152805	0.982283	0.924676	-0.378286	0.043285	0.364970	0.912990	0.182337
11123		9.768006	0.551940	1.809595	0.013101	-0.000623	0.011352	1.000000	0.000164	-0.000008	0.000142	-0.108023	-0.152759	0.982342	0.924835	-0.377939	0.042928	0.364707	0.913141	0.182103
11124		9.764496	0.479097	1.798055	-0.002370	0.014071	-0.017119	1.000000	-0.000030	0.000176	-0.000214	-0.108376	-0.152957	0.982272	0.924885	-0.377783	0.043217	0.364476	0.913172	0.182410
11125		9.649728	0.333255	1.844629	0.027060	-0.006359	-0.006488	1.000000	0.000338	-0.000079	-0.000081	-0.108326	-0.152580	0.982336	0.925099	-0.377235	0.043421	0.363946	0.913462	0.182016
11126		9.646553	0.453972	1.887707	0.007971	-0.009085	0.018884	1.000000	0.000100	-0.000114	0.000236	-0.107611	-0.152411	0.982441	0.925239	-0.376956	0.042867	0.363804	0.913605	0.181581
11127		9.686535	0.525997	1.884107	-0.026651	0.023776	0.006170	1.000000	-0.000333	0.000297	0.000077	-0.107405	-0.152857	0.982394	0.925003	-0.377590	0.042378	0.364464	0.913269	0.181948
11128		9.719000	0.466592	1.805911	-0.006802	0.043995	-0.026165	1.000000	-0.000085	0.000550	-0.000327	-0.108302	-0.153447	0.982204	0.924863	-0.377868	0.042947	0.364553	0.913055	0.182841
11129		9.779425	0.392840	1.716298	0.011597	0.033605	-0.029855	1.000000	0.000145	0.000420	-0.000373	-0.109202	-0.153677	0.982068	0.924830	-0.377862	0.043708	0.364370	0.913019	0.183389
11130		9.736230	0.336181	1.724816	0.015912	0.013802	-0.009799	1.000000	0.000199	0.000173	-0.000122	-0.109396	-0.153716	0.982041	0.924930	-0.377591	0.043931	0.364057	0.913124	0.183483
11131		9.658251	0.431537	1.754814	0.020330	-0.000937	0.003067	1.000000	0.000254	-0.000012	0.000038	-0.109120	-0.153664	0.982080	0.925180	-0.376992	0.043811	0.363504	0.913381	0.183304
11132		9.728865	0.492132	1.755743	0.001521	0.021870	-0.009244	1.000000	0.000019	0.000273	-0.000116	-0.109397	-0.153874	0.982016	0.925137	-0.377078	0.043976	0.363530	0.913310	0.183605
11133		9.686867	0.414277	1.699531	-0.017419	0.036639	-0.023418	1.000000	-0.000218	0.000458	-0.000293	-0.110133	-0.154397	0.981851	0.924955	-0.377475	0.044393	0.363770	0.913058	0.184383
11134		9.680182	0.363370	1.648039	-0.011429	0.013461	-0.008606	1.000000	-0.000143	0.000168	-0.000108	-0.110158	-0.154357	0.981855	0.924758	-0.377964	0.044333	0.364263	0.912862	0.184378
11135		9.683558	0.396655	1.705209	0.010412	-0.010499	0.001462	1.000000	0.000130	-0.000131	0.000018	-0.109917	-0.154011	0.981936	0.924885	-0.377659	0.044297	0.364015	0.913047	0.183953
11136		9.758625	0.477390	1.731807	0.007413	-0.006438	-0.005992	1.000000	0.000093	-0.000080	-0.000075	-0.109771	-0.153690	0.982003	0.924959	-0.377473	0.044317	0.363869	0.913178	0.183592
11137		9.726228	0.455171	1.743067	-0.014321	0.011877	-0.008623	1.000000	-0.000179	0.000148	-0.000108	-0.109871	-0.153703	0.981990	0.924798	-0.377868	0.044327	0.364249	0.913012	0.183661
11138		9.675460	0.419374	1.698162	-0.012075	0.010768	-0.008960	1.000000	-0.000151	0.000135	-0.000112	-0.109992	-0.153786	0.981963	0.924719	-0.378055	0.044372	0.364412	0.912921	0.183792
11139		9.688877	0.386163	1.686699	0.013250	-0.004085	-0.012505	1.000000	0.000166	-0.000051	-0.000156	-0.110043	-0.153450	0.982010	0.924833	-0.377750	0.044608	0.364109	0.913104	0.183485
11140		9.743905	0.416392	1.751677	0.017261	-0.008412	-0.005334	1.000000	0.000216	-0.000105	-0.000067	-0.110016	-0.152930	0.982094	0.924896	-0.377570	0.044814	0.363956	0.913265	0.182983
11141		9.715917	0.436652	1.762310	-0.006163	-0.005183	0.001811	1.000000	-0.000077	-0.000065	0.000023	-0.109732	-0.152553	0.982184	0.924776	-0.377887	0.044625	0.364347	0.913197	0.182544
11142		9.693664	0.450224	1.779540	-0.017358	-0.004736	0.000987	1.000000	-0.000217	-0.000059	0.000012	-0.109454	-0.152304	0.982254	0.924631	-0.378270	0.044380	0.364798	0.913080	0.182228
11143		9.704607	0.411055	1.750628	-0.015930	0.000617	-0.008023	1.000000	-0.000199	0.000008	-0.000100	-0.109465	-0.152090	0.982286	0.924471	-0.378660	0.044393	0.365201	0.912954	0.182053
11144		9.709136	0.436902	1.768845	-0.008067	0.006435	-0.001786	1.000000	-0.000101	0.000080	-0.000022	-0.109442	-0.152105	0.982286	0.924426	-0.378774	0.044343	0.365319	0.912905	0.182063
11145		9.728491	0.501402	1.758883	-0.018750	0.001880	-0.002695	1.000000	-0.000234	0.000024	-0.000034	-0.109415	-0.151948	0.982314	0.924248	-0.379216	0.044289	0.365779	0.912747	0.181930
11146		9.728492	0.455545	1.734420	-0.010662	0.002095	-0.013801	1.000000	-0.000133	0.000026	-0.000173	-0.109608	-0.151664	0.982336	0.924089	-0.379577	0.044505	0.366122	0.912644	0.181756
11147		9.645697	0.374812	1.725929	0.014663	0.002660	-0.015837	1.000000	0.000183	0.000033	-0.000198	-0.109860	-0.151429	0.982344	0.924187	-0.379293	0.044888	0.365799	0.912801	0.181618
11148		9.719101	0.465046	1.792907	0.028217	-0.012908	-0.002113	1.000000	0.000353	-0.000161	-0.000026	-0.109720	-0.150939	0.982435	0.924433	-0.378672	0.045064	0.365219	0.913140	0.181081
11149		9.829733	0.533511	1.789350	-0.013567	0.012253	-0.024212	1.000000	-0.000170	0.000153	-0.000303	-0.110219	-0.150863	0.982391	0.924273	-0.379012	0.045495	0.365474	0.913012	0.181213
11150		9.711662	0.275582	1.758402	-0.012198	0.020786	-0.035532	1.000000	-0.000152	0.000260	-0.000444	-0.110964	-0.150863	0.982307	0.924086	-0.379392	0.046121	0.365721	0.912854	0.181509
11151		9.596301	0.324591	1.781771	0.021607	-0.007531	-0.002299	1.000000	0.000270	-0.000094	-0.000029	-0.110814	-0.150523	0.982376	0.924286	-0.378895	0.046206	0.365262	0.913116	0.181113
11152		9.726250	0.409139	1.822317	0.006179	-0.004549	-0.001684	1.000000	0.000077	-0.000057	-0.000021	-0.110708	-0.150152	0.982445	0.924273	-0.378922	0.046240	0.365327	0.913166	0.180731
11153		9.781119	0.437240	1.810163	-0.001493	0.028238	-0.010492	1.000000	-0.000019	0.000353	-0.000131	-0.111028	-0.150580	0.982343	0.924262	-0.378930	0.046378	0.365256	0.913092	0.181248
11154		9.752173	0.388184	1.751565	-0.004504	0.033337	-0.013703	1.000000	-0.000056	0.000417	-0.000171	-0.111503	-0.151022	0.982222	0.924165	-0.379137	0.046618	0.365357	0.912933	0.181844
11155		9.729239	0.345007	1.723427	0.007694	0.010919	-0.000326	1.000000	0.000096	0.000136	-0.000004	-0.111390	-0.151238	0.982201	0.924334	-0.378739	0.046510	0.364964	0.913063	0.181982
11156		9.679112	0.359455	1.769939	0.023222	-0.005392	0.015164	1.000000	0.000290	-0.000067	0.000190	-0.110943	-0.151062	0.982279	0.924561	-0.378216	0.046259	0.364526	0.913309	0.181626
11157		9.712523	0.495900	1.810781	0.010069	0.009415	0.022070	1.000000	0.000126	0.000118	0.000276	-0.110292	-0.151361	0.982306	0.924740	-0.377858	0.045606	0.364270	0.913407	0.181644
11158		9.697421	0.534362	1.786076	-0.023443	0.032656	0.004423	1.000000	-0.000293	0.000408	0.000055	-0.110324	-0.151905	0.982219	0.924476	-0.378539	0.045295	0.364927	0.913035	0.182195
11159		9.724561	0.460720	1.687943	-0.032305	0.030491	-0.006152	1.000000	-0.000404	0.000381	-0.000077	-0.110570	-0.152438	0.982109	0.924208	-0.379205	0.045193	0.365531	0.912670	0.182813
11160		9.722144	0.356123	1.668985	-0.006806	0.012856	0.003151	1.000000	-0.000085	0.000161	0.000039	-0.110460	-0.152642	0.982089	0.924188	-0.379279	0.044997	0.365617	0.912605	0.182965
11161		9.689950	0.440855	1.744369	0.019578	-0.004463	0.021027	1.000000	0.000245	-0.000056	0.000263	-0.109686	-0.152519	0.982195	0.924384	-0.378872	0.044398	0.365354	0.912795	0.182543
11162		9.670983	0.612248	1.786475	-0.010396	0.005999	0.013921	1.000000	-0.000130	0.000075	0.000174	-0.109108	-0.152641	0.982240	0.924338	-0.379055	0.043771	0.365642	0.912698	0.182450
11163		9.674877	0.559416	1.742239	-0.035849	0.025328	-0.007092	1.000000	-0.000448	0.000317	-0.000089	-0.109362	-0.153034	0.982151	0.924028	-0.379818	0.043708	0.366350	0.912315	0.182945
11164		9.678496	0.463878	1.675398	-0.009686	0.027555	-0.022696	1.000000	-0.000121	0.000344	-0.000284	-0.109916	-0.153313	0.982046	0.923898	-0.380092	0.044070	0.366512	0.912154	0.183424
11165		9.675741	0.447218	1.677993	0.015994	0.002061	-0.018147	1.000000	0.000200	0.000026	-0.000227	-0.110232	-0.153011	0.982057	0.923984	-0.379829	0.044534	0.366200	0.912314	0.183249
11166		9.724095	0.460965	1.765936	0.010089	-0.011869	-0.012607	1.000000	0.000126	-0.000148	-0.000158	-0.110197	-0.152478	0.982144	0.924062	-0.379614	0.044745	0.366013	0.912493	0.182731
11167		9.725403	0.439679	1.822106	-0.003028	0.001229	-0.012824	1.000000	-0.000038	0.000015	-0.000160	-0.110305	-0.152241	0.982169	0.924017	-0.379705	0.044919	0.366096	0.912495	0.182556
11168		9.694279	0.411370	1.794882	-0.008208	0.014924	-0.012995	1.000000	-0.000103	0.000187	-0.000162	-0.110541	-0.152235	0.982143	0.923866	-0.380053	0.045072	0.366405	0.912351	0.182656
11169		9.687013	0.437155	1.776727	-0.010256	0.010815	-0.009806	1.000000	-0.000128	0.000135	-0.000123	-0.110748	-0.152136	0.982135	0.923678	-0.380492	0.045217	0.366815	0.912185	0.182663
11170		9.712245	0.416557	1.750416	-0.007847	0.006978	-0.012417	1.000000	-0.000098	0.000087	-0.000155	-0.110899	-0.152204	0.982108	0.923715	-0.380386	0.045355	0.366676	0.912218	0.182778
11171		9.746644	0.411948	1.760064	0.003289	0.009723	-0.013858	1.000000	0.000041	0.000122	-0.000173	-0.111079	-0.152208	0.982087	0.923771	-0.380227	0.045555	0.366482	0.912283	0.182840
11172		9.722378	0.389582	1.794989	0.005039	0.009546	-0.012354	1.000000	0.000063	0.000119	-0.000154	-0.111272	-0.152078	0.982085	0.923733	-0.380292	0.045772	0.366518	0.912277	0.182796
11173		9.671432	0.377845	1.801926	0.003567	0.004853	-0.000496	1.000000	0.000045	0.000061	-0.000006	-0.111132	-0.152003	0.982112	0.923749	-0.380266	0.045674	0.366521	0.912301	0.182673
11174		9.814364	0.484867	1.805191	-0.007877	0.013676	-0.006539	1.000000	-0.000098	0.000171	-0.000082	-0.111307	-0.152040	0.982087	0.923623	-0.380561	0.045765	0.366786	0.912172	0.182787
11175		9.798782	0.337722	1.775196	-0.007526	0.034063	-0.025718	1.000000	-0.000094	0.000426	-0.000321	-0.112102	-0.152443	0.981934	0.923508	-0.380773	0.046318	0.366833	0.912016	0.183468
11176		9.660071	0.263803	1.783581	0.006141	0.007826	0.005858	1.000000	0.000077	0.000098	0.000073	-0.111880	-0.152513	0.981948	0.923582	-0.380618	0.046114	0.366714	0.912069	0.183441
11177		9.634350	0.381345	1.849304	-0.000601	-0.009587	0.033023	1.000000	-0.000008	-0.000120	0.000413	-0.110833	-0.152379	0.982088	0.923616	-0.380648	0.045174	0.366946	0.912079	0.182928
11178		9.651037	0.500664	1.863102	0.001261	0.026629	0.016606	1.000000	0.000016	0.000333	0.000208	-0.110439	-0.153027	0.982032	0.923714	-0.380479	0.044592	0.366818	0.912041	0.183373
11179		9.750299	0.533277	1.819382	-0.005704	0.044344	-0.012445	1.000000	-0.000071	0.000554	-0.000156	-0.110955	-0.153691	0.981870	0.923571	-0.380807	0.044759	0.367024	0.911792	0.184197
11180		9.785941	0.397011	1.707512	-0.036685	0.042940	-0.010394	1.000000	-0.000459	0.000537	-0.000130	-0.111351	-0.154390	0.981715	0.923193	-0.381732	0.044680	0.367854	0.911287	0.185038
11181		9.695506	0.316546	1.669641	-0.006536	0.016154	0.022036	1.000000	-0.000082	0.000202	0.000275	-0.110795	-0.154806	0.981713	0.923196	-0.381804	0.043984	0.368013	0.911187	0.185218
11182		9.630030	0.514580	1.750050	0.027254	0.001118	0.029697	1.000000	0.000341	0.000014	0.000371	-0.109862	-0.154893	0.981804	0.923487	-0.381189	0.043199	0.367562	0.911429	0.184920
11183		9.645027	0.608967	1.805095	0.000650	0.017456	-0.001011	1.000000	0.000008	0.000218	-0.000013	-0.109814	-0.155165	0.981766	0.923535	-0.381089	0.043071	0.367457	0.911425	0.185150
11184		9.712005	0.469207	1.720048	-0.024972	0.036492	-0.022945	1.000000	-0.000312	0.000456	-0.000287	-0.110421	-0.155632	0.981624	0.923255	-0.381737	0.043332	0.367978	0.911074	0.185839
11185		9.707450	0.352883	1.660014	-0.005399	0.025869	-0.008571	1.000000	-0.000067	0.000323	-0.000107	-0.110654	-0.156078	0.981527	0.923268	-0.381698	0.043390	0.367875	0.911014	0.186338
11186		9.673952	0.446727	1.694611	0.013321	-0.006078	0.006945	1.000000	0.000167	-0.000076	0.000087	-0.110305	-0.155796	0.981611	0.923379	-0.381449	0.043220	0.367701	0.911166	0.185935
11187		9.685214	0.511975	1.769758	0.008419	-0.014747	0.001036	1.000000	0.000105	-0.000184	0.000013	-0.109945	-0.155328	0.981726	0.923477	-0.381223	0.043105	0.367561	0.911341	0.185356
11188		9.725879	0.500702	1.782639	-0.011336	0.006789	-0.014606	1.000000	-0.000142	0.000085	-0.000183	-0.110152	-0.155204	0.981722	0.923359	-0.381490	0.043292	0.367798	0.911250	0.185331
11189		9.699846	0.450902	1.748627	-0.016736	0.019490	-0.018435	1.000000	-0.000209	0.000244	-0.000230	-0.110655	-0.155302	0.981650	0.923149	-0.381959	0.043633	0.368174	0.911037	0.185633
11190		9.701245	0.405530	1.755480	-0.000101	0.003182	-0.011391	1.000000	-0.000001	0.000040	-0.000142	-0.110839	-0.155099	0.981661	0.923119	-0.382004	0.043874	0.368194	0.911053	0.185515
11191		9.694553	0.437022	1.800799	0.015448	-0.020011	-0.005362	1.000000	0.000193	-0.000250	-0.000067	-0.110539	-0.154436	0.981800	0.923263	-0.381651	0.043916	0.367923	0.911313	0.184772
11192		9.720031	0.469044	1.861884	0.006485	-0.016260	-0.006936	1.000000	0.000081	-0.000203	-0.000087	-0.110370	-0.153830	0.981914	0.923302	-0.381545	0.044008	0.367874	0.911460	0.184142
11193		9.694894	0.446792	1.864136	-0.015930	0.007870	-0.012225	1.000000	-0.000199	0.000098	-0.000153	-0.110595	-0.153680	0.981912	0.923091	-0.382035	0.044178	0.368335	0.911280	0.184112
11194		9.672032	0.421782	1.818206	-0.025721	0.017671	-0.008831	1.000000	-0.000322	0.000221	-0.000110	-0.110734	-0.153825	0.981874	0.922829	-0.382675	0.044123	0.368951	0.910987	0.184329
11195		9.698306	0.440757	1.779283	-0.010344	0.012549	-0.011849	1.000000	-0.000129	0.000157	-0.000148	-0.110922	-0.153783	0.981859	0.922660	-0.383069	0.044237	0.369317	0.910829	0.184380
11196		9.722446	0.445231	1.806668	0.004001	0.006444	-0.016552	1.000000	0.000050	0.000081	-0.000207	-0.111156	-0.153629	0.981857	0.922678	-0.382992	0.044530	0.369203	0.910887	0.184322
11197		9.748569	0.415004	1.753499	-0.005946	0.009776	-0.020698	1.000000	-0.000074	0.000122	-0.000259	-0.111556	-0.153460	0.981838	0.922542	-0.383274	0.044914	0.369421	0.910797	0.184330
11198		9.631547	0.334219	1.778854	0.000981	0.002578	-0.004006	1.000000	0.000012	0.000032	-0.000050	-0.111409	-0.153255	0.981886	0.922494	-0.383400	0.044829	0.369585	0.910779	0.184091
11199		9.749534	0.503900	1.795685	-0.006336	0.001259	0.000867	1.000000	-0.000079	0.000016	0.000011	-0.111217	-0.153143	0.981926	0.922450	-0.383524	0.044665	0.369752	0.910745	0.183922
11200		9.775815	0.436146	1.745055	-0.034071	0.021861	-0.025401	1.000000	-0.000426	0.000273	-0.000318	-0.111859	-0.153307	0.981827	0.922134	-0.384238	0.045062	0.370347	0.910416	0.184350
11201		9.664021	0.269874	1.725274	-0.006097	0.006262	-0.010085	1.000000	-0.000076	0.000078	-0.000126	-0.111856	-0.153213	0.981842	0.922076	-0.384375	0.045066	0.370491	0.910374	0.184269
11202		9.623173	0.373819	1.789941	0.002740	-0.017285	0.021978	1.000000	0.000034	-0.000216	0.000275	-0.110987	-0.152861	0.981996	0.922159	-0.384254	0.044410	0.370547	0.910485	0.183610
11203		9.662951	0.508907	1.822237	-0.009770	-0.004311	0.016677	1.000000	-0.000122	-0.000054	0.000208	-0.110452	-0.152730	0.982076	0.922090	-0.384477	0.043913	0.370879	0.910413	0.183297
11204		9.736468	0.523895	1.816050	-0.022719	0.025411	-0.011783	1.000000	-0.000284	0.000318	-0.000147	-0.110912	-0.153051	0.981974	0.921863	-0.384996	0.044117	0.371304	0.910139	0.183793
11205		9.743942	0.403551	1.725097	-0.033417	0.031521	-0.021469	1.000000	-0.000418	0.000394	-0.000268	-0.111598	-0.153467	0.981832	0.921555	-0.385694	0.044460	0.371863	0.909774	0.184470
11206		9.697991	0.340204	1.685467	-0.018386	0.001479	0.004145	1.000000	-0.000230	0.000018	0.000052	-0.111313	-0.153411	0.981873	0.921429	-0.386031	0.044146	0.372260	0.909640	0.184328
11207		9.667541	0.433830	1.731966	0.001318	-0.022245	0.017302	1.000000	0.000016	-0.000278	0.000216	-0.110559	-0.152897	0.982038	0.921484	-0.385955	0.043651	0.372349	0.909759	0.183563
11208		9.699864	0.548962	1.798533	0.006348	-0.006938	-0.002490	1.000000	0.000079	-0.000087	-0.000031	-0.110349	-0.152601	0.982108	0.921591	-0.385704	0.043618	0.372147	0.909915	0.183198
11209		9.726511	0.476648	1.787782	-0.008256	0.015379	-0.029814	1.000000	-0.000103	0.000192	-0.000373	-0.111059	-0.152463	0.982049	0.921405	-0.386074	0.044263	0.372395	0.909781	0.183357
11210		9.730569	0.321331	1.759138	-0.012579	0.008938	-0.021721	1.000000	-0.000157	0.000112	-0.000272	-0.111527	-0.152254	0.982029	0.921197	-0.386520	0.044692	0.372769	0.909627	0.183364
11211		9.712238	0.327180	1.795342	0.012905	-0.014702	0.006640	1.000000	0.000161	-0.000184	0.000083	-0.111027	-0.151783	0.982158	0.921309	-0.386281	0.044452	0.372642	0.909807	0.182727
11212		9.693675	0.465167	1.864854	0.023360	-0.016782	0.002387	1.000000	0.000292	-0.000210	0.000030	-0.110640	-0.151250	0.982284	0.921531	-0.385757	0.044398	0.372208	0.910118	0.182062
11213		9.730818	0.498060	1.887183	-0.006414	0.013224	-0.014936	1.000000	-0.000080	0.000165	-0.000187	-0.110876	-0.151225	0.982261	0.921419	-0.386005	0.044580	0.372417	0.910017	0.182140
11214		9.733072	0.382583	1.788334	-0.031929	0.030076	-0.012195	1.000000	-0.000399	0.000376	-0.000152	-0.111192	-0.151738	0.982147	0.921193	-0.386545	0.044571	0.372881	0.909703	0.182760
11215		9.726502	0.360059	1.747364	-0.004533	0.015742	-0.002687	1.000000	-0.000057	0.000197	-0.000034	-0.111239	-0.151893	0.982117	0.921130	-0.386699	0.044525	0.373021	0.909611	0.182929
11216		9.706739	0.418136	1.769228	0.023592	-0.001677	0.001841	1.000000	0.000295	-0.000021	0.000023	-0.110977	-0.151769	0.982166	0.921417	-0.386022	0.044463	0.372389	0.909919	0.182683
11217		9.713880	0.463655	1.817274	0.004288	0.004950	0.001318	1.000000	0.000054	0.000062	0.000016	-0.110901	-0.151753	0.982177	0.921480	-0.385877	0.044427	0.372258	0.909983	0.182632
11218		9.707310	0.416378	1.802131	-0.025911	0.022330	-0.001799	1.000000	-0.000324	0.000279	-0.000022	-0.110964	-0.152104	0.982116	0.921256	-0.386432	0.044240	0.372792	0.909689	0.183007
11219		9.700788	0.398443	1.719715	-0.024661	0.028080	0.000329	1.000000	-0.000308	0.000351	0.000004	-0.111093	-0.152614	0.982022	0.921055	-0.386932	0.044063	0.373251	0.909392	0.183551
11220		9.699770	0.432549	1.722900	0.000545	0.008149	0.004285	1.000000	0.000007	0.000102	0.000054	-0.110878	-0.152581	0.982052	0.920985	-0.387124	0.043836	0.373487	0.909315	0.183448
11221		9.724707	0.457272	1.721047	0.010125	0.001455	-0.004477	1.000000	0.000127	0.000018	-0.000056	-0.110749	-0.152474	0.982083	0.921137	-0.386763	0.043829	0.373150	0.909487	0.183283
11222		9.742796	0.448856	1.727589	0.009403	0.010477	-0.009249	1.000000	0.000118	0.000131	-0.000116	-0.110832	-0.152435	0.982079	0.921188	-0.386628	0.043949	0.373000	0.909551	0.183272
11223		9.683358	0.380489	1.741221	0.011660	0.006856	-0.004406	1.000000	0.000146	0.000086	-0.000055	-0.110837	-0.152425	0.982080	0.921325	-0.386294	0.044025	0.372661	0.909694	0.183248
11224		9.694341	0.486743	1.805092	0.019739	-0.006199	0.004400	1.000000	0.000247	-0.000077	0.000055	-0.110465	-0.152131	0.982168	0.921501	-0.385891	0.043870	0.372335	0.909915	0.182816
11225		9.791259	0.542525	1.791615	-0.009810	0.011655	-0.013722	1.000000	-0.000123	0.000146	-0.000172	-0.110688	-0.152095	0.982148	0.921376	-0.386170	0.044037	0.372578	0.909802	0.182881
11226		9.749214	0.310259	1.775271	-0.010620	0.024237	-0.028487	1.000000	-0.000133	0.000303	-0.000356	-0.111385	-0.152225	0.982049	0.921221	-0.386477	0.044579	0.372753	0.909650	0.183281
11227		9.672135	0.285787	1.812353	0.007809	-0.001119	0.011835	1.000000	0.000098	-0.000014	0.000148	-0.110850	-0.152076	0.982133	0.921268	-0.386415	0.044147	0.372797	0.909701	0.182937
11228		9.670146	0.461733	1.873298	-0.013672	-0.008232	0.031134	1.000000	-0.000171	-0.000103	0.000389	-0.109925	-0.151975	0.982253	0.921177	-0.386733	0.043254	0.373296	0.909583	0.182508
11229		9.707944	0.528079	1.884512	-0.025039	0.025713	0.000715	1.000000	-0.000313	0.000321	0.000009	-0.110037	-0.152434	0.982169	0.920973	-0.387237	0.043082	0.373765	0.909292	0.182998
11230		9.726275	0.450363	1.790257	-0.015851	0.044341	-0.024240	1.000000	-0.000198	0.000554	-0.000303	-0.110835	-0.153039	0.981985	0.920756	-0.387705	0.043501	0.374063	0.908990	0.183883
11231		9.744537	0.367725	1.738233	-0.012167	0.028011	-0.009648	1.000000	-0.000152	0.000350	-0.000121	-0.111169	-0.153398	0.981891	0.920594	-0.388079	0.043600	0.374364	0.908770	0.184360
11232		9.672106	0.388734	1.765105	0.000072	-0.000746	0.015344	1.000000	0.000001	-0.000009	0.000192	-0.110588	-0.153363	0.981962	0.920639	-0.388030	0.043079	0.374424	0.908797	0.184104
11233		9.669168	0.550476	1.814209	0.007032	0.007328	0.007944	1.000000	0.000088	0.000092	0.000099	-0.110287	-0.153408	0.981989	0.920696	-0.387926	0.042801	0.374374	0.908834	0.184025
11234		9.706770	0.559754	1.789400	-0.012256	0.038548	-0.025143	1.000000	-0.000153	0.000482	-0.000314	-0.111006	-0.153876	0.981835	0.920519	-0.388301	0.043218	0.374597	0.908595	0.184749
11235		9.704666	0.416245	1.719272	-0.033895	0.041096	-0.031034	1.000000	-0.000424	0.000514	-0.000388	-0.111982	-0.154361	0.981648	0.920131	-0.389158	0.043771	0.375259	0.908146	0.185611
11236		9.682552	0.323348	1.678400	-0.006757	0.008707	-0.007986	1.000000	-0.000084	0.000109	-0.000100	-0.112082	-0.154291	0.981648	0.920023	-0.389405	0.043842	0.375494	0.908052	0.185596
11237		9.689691	0.438885	1.752705	0.033428	-0.010552	-0.000847	1.000000	0.000418	-0.000132	-0.000011	-0.111830	-0.153907	0.981737	0.920361	-0.388595	0.043919	0.374739	0.908464	0.185106
11238		9.698344	0.519175	1.856169	0.018250	-0.000597	-0.015696	1.000000	0.000228	-0.000007	-0.000196	-0.112042	-0.153570	0.981765	0.920485	-0.388258	0.044316	0.374373	0.908665	0.184860
11239		9.733002	0.435830	1.813892	-0.026179	0.024955	-0.024644	1.000000	-0.000327	0.000312	-0.000308	-0.112637	-0.153720	0.981674	0.920164	-0.388976	0.044670	0.374981	0.908332	0.185261
11240		9.695490	0.328809	1.743829	-0.011100	0.028379	-0.019937	1.000000	-0.000139	0.000355	-0.000249	-0.113163	-0.153991	0.981571	0.919993	-0.389345	0.044983	0.375243	0.908128	0.185730
11241		9.663871	0.365112	1.756803	0.019208	0.001408	-0.009717	1.000000	0.000240	0.000018	-0.000121	-0.113257	-0.153779	0.981593	0.920165	-0.388908	0.045242	0.374792	0.908352	0.185549
11242		9.713544	0.403680	1.833835	0.016116	-0.012841	-0.005249	1.000000	0.000201	-0.000161	-0.000066	-0.113093	-0.153292	0.981688	0.920325	-0.388516	0.045356	0.374449	0.908601	0.185017
11243		9.721981	0.420114	1.869464	-0.011772	0.006477	-0.005765	1.000000	-0.000147	0.000081	-0.000072	-0.113090	-0.153251	0.981695	0.920240	-0.388721	0.045328	0.374658	0.908521	0.184989
11244		9.718935	0.406938	1.800823	-0.022002	0.023336	-0.003584	1.000000	-0.000275	0.000292	-0.000045	-0.113201	-0.153567	0.981633	0.920014	-0.389270	0.045197	0.375179	0.908232	0.185349
11245		9.667814	0.399626	1.768057	-0.008542	0.017392	-0.002545	1.000000	-0.000107	0.000217	-0.000032	-0.113224	-0.153809	0.981592	0.919968	-0.389390	0.045101	0.375286	0.908140	0.185588
11246		9.686933	0.447022	1.775971	0.009805	0.005026	-0.004692	1.000000	0.000123	0.000063	-0.000059	-0.113184	-0.153745	0.981607	0.920087	-0.389104	0.045147	0.375006	0.908274	0.185499
11247		9.718482	0.466443	1.809097	0.000453	0.000132	-0.006664	1.000000	0.000006	0.000002	-0.000083	-0.113129	-0.153505	0.981651	0.920065	-0.389152	0.045179	0.375076	0.908293	0.185259
11248		9.697284	0.406838	1.761843	-0.007146	0.009192	-0.011322	1.000000	-0.000089	0.000115	-0.000142	-0.113269	-0.153428	0.981646	0.919964	-0.389377	0.045294	0.375281	0.908210	0.185253
11249		9.629940	0.443549	1.776948	0.019698	0.000791	-0.001010	1.000000	0.000246	0.000010	-0.000013	-0.113051	-0.153299	0.981692	0.920184	-0.388862	0.045244	0.374807	0.908452	0.185024
11250		9.778310	0.571540	1.760445	-0.005337	0.008002	-0.014064	1.000000	-0.000067	0.000100	-0.000176	-0.113220	-0.153224	0.981684	0.920152	-0.388919	0.045420	0.374836	0.908441	0.185023
11251		9.718382	0.361698	1.762507	-0.002758	0.010382	-0.028732	1.000000	-0.000034	0.000130	-0.000359	-0.113869	-0.152954	0.981651	0.919980	-0.389249	0.046065	0.375061	0.908345	0.185038
11252		9.620535	0.339710	1.816110	0.029855	-0.012177	-0.002652	1.000000	0.000373	-0.000152	-0.000033	-0.113627	-0.152473	0.981754	0.920247	-0.388606	0.046155	0.374478	0.908701	0.184469
11253		9.660214	0.501528	1.850535	0.008295	-0.007394	0.009855	1.000000	0.000104	-0.000092	0.000123	-0.113181	-0.152188	0.981850	0.920309	-0.388493	0.045870	0.374460	0.908797	0.184030
11254		9.723846	0.492290	1.862546	-0.000729	0.021030	-0.011542	1.000000	-0.000009	0.000263	-0.000144	-0.113483	-0.152398	0.981782	0.920283	-0.388533	0.046064	0.374435	0.908745	0.184341
11255		9.696779	0.462825	1.785613	0.010121	0.025474	-0.017936	1.000000	0.000127	0.000318	-0.000224	-0.113886	-0.152643	0.981698	0.920344	-0.388350	0.046384	0.374163	0.908782	0.184711
11256		9.735802	0.403296	1.761659	0.001956	0.004637	-0.007146	1.000000	0.000024	0.000058	-0.000089	-0.113848	-0.152489	0.981726	0.920324	-0.388394	0.046399	0.374221	0.908789	0.184557
11257		9.674304	0.433459	1.781762	0.004074	-0.002667	0.004649	1.000000	0.000051	-0.000033	0.000058	-0.113454	-0.152339	0.981795	0.920418	-0.388205	0.046126	0.374111	0.908895	0.184259
11258		9.710512	0.557157	1.775256	-0.008859	0.009846	0.004467	1.000000	-0.000111	0.000123	0.000056	-0.113200	-0.152467	0.981804	0.920386	-0.388319	0.045815	0.374268	0.908825	0.184286
11259		9.663540	0.507610	1.732154	-0.009596	0.021277	-0.021425	1.000000	-0.000120	0.000266	-0.000268	-0.113677	-0.152644	0.981722	0.920310	-0.388456	0.046166	0.374309	0.908736	0.184638
11260		9.689621	0.438595	1.694664	0.005816	0.005848	-0.023274	1.000000	0.000073	0.000073	-0.000291	-0.114134	-0.152355	0.981714	0.920269	-0.388490	0.046699	0.374271	0.908771	0.184547
11261		9.724375	0.435090	1.702389	0.001017	-0.010247	-0.006917	1.000000	0.000013	-0.000128	-0.000086	-0.114050	-0.151839	0.981803	0.920209	-0.388620	0.046794	0.374443	0.908801	0.184046
11262		9.706651	0.480576	1.722648	0.006391	-0.008163	-0.004405	1.000000	0.000080	-0.000102	-0.000055	-0.113944	-0.151397	0.981884	0.920213	-0.388603	0.046868	0.374467	0.908882	0.183596
11263		9.663251	0.537338	1.744982	0.006044	-0.004237	-0.012350	1.000000	0.000076	-0.000053	-0.000154	-0.114019	-0.151005	0.981935	0.920230	-0.388533	0.047104	0.374401	0.908977	0.183259
11264		9.677996	0.505755	1.731045	-0.009801	-0.010496	-0.020532	1.000000	-0.000123	-0.000131	-0.000257	-0.114230	-0.150436	0.981998	0.920122	-0.388743	0.047479	0.374602	0.908982	0.182825
11265		9.720273	0.434474	1.703427	-0.003404	-0.011151	-0.022233	1.000000	-0.000043	-0.000139	-0.000278	-0.114439	-0.149780	0.982074	0.920018	-0.388938	0.047889	0.374793	0.909007	0.182310
11266		9.691166	0.434841	1.739743	0.025637	-0.017048	-0.013097	1.000000	0.000320	-0.000213	-0.000164	-0.114379	-0.149109	0.982183	0.920241	-0.388373	0.048205	0.374265	0.909359	0.181638
11267		9.691137	0.483717	1.789468	0.016087	-0.021770	-0.007616	1.000000	0.000201	-0.000272	-0.000095	-0.114227	-0.148389	0.982310	0.920388	-0.387997	0.048415	0.373949	0.909637	0.180895
11268		9.704676	0.507332	1.854273	-0.019566	-0.015035	-0.007584	1.000000	-0.000245	-0.000188	-0.000095	-0.114063	-0.147778	0.982421	0.920166	-0.388527	0.048391	0.374546	0.909510	0.180297
11269		9.703314	0.460079	1.781741	-0.027851	0.000754	-0.014192	1.000000	-0.000348	0.000009	-0.000177	-0.114316	-0.147464	0.982439	0.919829	-0.389298	0.048597	0.375295	0.909231	0.180145
11270		9.673755	0.448467	1.766107	0.001068	0.001995	-0.015985	1.000000	0.000013	0.000025	-0.000200	-0.114498	-0.147221	0.982454	0.919840	-0.389238	0.048873	0.375213	0.909296	0.179987
11271		9.720694	0.475692	1.771484	0.010144	-0.008067	-0.018811	1.000000	0.000127	-0.000101	-0.000235	-0.114706	-0.146662	0.982513	0.919858	-0.389140	0.049303	0.375105	0.909428	0.179545
11272		9.792634	0.452154	1.788876	-0.003045	-0.003798	-0.014784	1.000000	-0.000038	-0.000047	-0.000185	-0.114832	-0.146273	0.982557	0.919799	-0.389248	0.049550	0.375211	0.909445	0.179240
11273		9.722316	0.360764	1.760610	-0.002586	0.008465	-0.012277	1.000000	-0.000032	0.000106	-0.000153	-0.115041	-0.146185	0.982545	0.919749	-0.389340	0.049762	0.375269	0.909420	0.179243
11274		9.643882	0.440237	1.790104	0.026160	-0.009628	0.006546	1.000000	0.000327	-0.000120	0.000082	-0.114590	-0.145838	0.982650	0.919999	-0.388772	0.049585	0.374795	0.909718	0.178720
11275		9.791892	0.578187	1.826169	-0.006147	-0.007374	-0.009899	1.000000	-0.000077	-0.000092	-0.000124	-0.114553	-0.145426	0.982715	0.919941	-0.388896	0.049686	0.374949	0.909731	0.178332
11276		9.774081	0.321375	1.813085	-0.007668	0.010195	-0.027759	1.000000	-0.000096	0.000127	-0.000347	-0.115125	-0.145192	0.982683	0.919762	-0.389248	0.050242	0.375213	0.909618	0.178354
11277		9.674804	0.339515	1.796158	0.007158	0.003341	0.012836	1.000000	0.000089	0.000042	0.000160	-0.114663	-0.145274	0.982725	0.919920	-0.388925	0.049841	0.374965	0.909743	0.178236
11278		9.668115	0.518211	1.800360	-0.024362	0.000011	0.030748	1.000000	-0.000305	0.000000	0.000384	-0.113818	-0.145375	0.982808	0.919740	-0.389471	0.048905	0.375665	0.909494	0.178036
11279		9.721970	0.536350	1.801994	-0.008732	0.016550	0.000623	1.000000	-0.000109	0.000207	0.000008	-0.113745	-0.145604	0.982783	0.919681	-0.389633	0.048716	0.375831	0.909387	0.178228
11280		9.759356	0.512363	1.749323	0.003512	0.028227	-0.016824	1.000000	0.000044	0.000353	-0.000210	-0.114262	-0.145887	0.982680	0.919630	-0.389707	0.049076	0.375798	0.909310	0.178691
11281		9.742866	0.408293	1.726878	-0.000739	0.019083	-0.007267	1.000000	-0.000009	0.000239	-0.000091	-0.114434	-0.146105	0.982628	0.919624	-0.389711	0.049152	0.375760	0.909274	0.178958
11282		9.656070	0.412843	1.751341	0.028809	-0.002808	0.012860	1.000000	0.000360	-0.000035	0.000161	-0.114006	-0.146002	0.982693	0.919925	-0.389029	0.048925	0.375153	0.909582	0.178662
11283		9.698296	0.597833	1.804894	0.017336	-0.002107	0.013916	1.000000	0.000217	-0.000026	0.000174	-0.113481	-0.145943	0.982763	0.920152	-0.388540	0.048552	0.374757	0.909801	0.178381
11284		9.769952	0.593994	1.799503	-0.015105	0.032691	-0.018215	1.000000	-0.000189	0.000409	-0.000228	-0.114043	-0.146359	0.982636	0.919973	-0.388926	0.048842	0.375024	0.909569	0.179001
11285		9.698965	0.424332	1.696280	-0.004819	0.034654	-0.018159	1.000000	-0.000060	0.000433	-0.000227	-0.114681	-0.146845	0.982489	0.919908	-0.389031	0.049231	0.374989	0.909446	0.179699
11286		9.640771	0.428781	1.725227	0.019508	0.000728	0.005039	1.000000	0.000244	0.000009	0.000063	-0.114386	-0.146715	0.982543	0.920077	-0.388652	0.049079	0.374666	0.909629	0.179445
11287		9.717342	0.543236	1.858332	0.019804	-0.008404	0.007409	1.000000	0.000248	-0.000105	0.000093	-0.114018	-0.146427	0.982629	0.920269	-0.388216	0.048932	0.374307	0.909861	0.179016
11288		9.766636	0.592869	1.855299	-0.011564	0.028417	-0.006576	1.000000	-0.000145	0.000355	-0.000082	-0.114228	-0.146861	0.982539	0.920167	-0.388458	0.048913	0.374492	0.909688	0.179510
11289		9.702819	0.512461	1.745362	-0.037908	0.050819	-0.013389	1.000000	-0.000474	0.000635	-0.000167	-0.114817	-0.147733	0.982340	0.919789	-0.389347	0.048953	0.375239	0.909167	0.180587
11290		9.669269	0.445734	1.680885	-0.008842	0.029963	-0.009618	1.000000	-0.000111	0.000375	-0.000120	-0.115144	-0.148157	0.982238	0.919682	-0.389590	0.049047	0.375403	0.908994	0.181117
11291		9.677863	0.485152	1.722457	0.023901	0.003533	-0.008968	1.000000	0.000299	0.000044	-0.000112	-0.115196	-0.148006	0.982255	0.919907	-0.389029	0.049265	0.374834	0.909258	0.180967
11292		9.707521	0.535578	1.797473	0.007873	0.011250	-0.015408	1.000000	0.000098	0.000141	-0.000193	-0.115458	-0.147928	0.982236	0.919921	-0.388960	0.049555	0.374720	0.909301	0.180991
11293		9.721178	0.469965	1.762610	-0.027495	0.030123	-0.016095	1.000000	-0.000344	0.000377	-0.000201	-0.115908	-0.148273	0.982131	0.919605	-0.389687	0.049698	0.375355	0.908933	0.181520
11294		9.688408	0.403054	1.694977	-0.029787	0.024901	-0.007423	1.000000	-0.000372	0.000311	-0.000093	-0.116188	-0.148564	0.982053	0.919255	-0.390514	0.049681	0.376125	0.908530	0.181941
11295		9.692795	0.432799	1.703166	0.001181	0.001978	0.005345	1.000000	0.000015	0.000025	0.000067	-0.115932	-0.148485	0.982096	0.919268	-0.390511	0.049474	0.376174	0.908545	0.181770
11296		9.717685	0.524483	1.756826	0.001402	0.000888	-0.002665	1.000000	0.000018	0.000011	-0.000033	-0.115813	-0.148312	0.982136	0.919276	-0.390498	0.049432	0.376190	0.908579	0.181564
11297		9.750631	0.496591	1.766463	-0.018349	0.017381	-0.008311	1.000000	-0.000229	0.000217	-0.000104	-0.115952	-0.148446	0.982099	0.919073	-0.390977	0.049414	0.376643	0.908350	0.181767
11298		9.695882	0.406991	1.714653	-0.013687	0.013647	-0.000074	1.000000	-0.000171	0.000171	-0.000001	-0.115889	-0.148571	0.982088	0.918930	-0.391337	0.049234	0.377012	0.908175	0.181878
11299		9.604423	0.429849	1.773754	0.020772	-0.014098	0.016153	1.000000	0.000260	-0.000176	0.000202	-0.115201	-0.148263	0.982215	0.919196	-0.390761	0.048826	0.376572	0.908473	0.181299
11300		9.764892	0.685508	1.836629	0.006876	-0.006645	0.006857	1.000000	0.000086	-0.000083	0.000086	-0.114790	-0.148017	0.982300	0.919288	-0.390576	0.048572	0.376473	0.908593	0.180905
11301		9.769811	0.523657	1.791431	-0.023871	0.031738	-0.030201	1.000000	-0.000298	0.000397	-0.000378	-0.115581	-0.148288	0.982167	0.918992	-0.391210	0.049082	0.376955	0.908276	0.181492
11302		9.610194	0.326121	1.760920	0.006344	0.017476	-0.014541	1.000000	0.000079	0.000218	-0.000182	-0.115896	-0.148380	0.982116	0.919017	-0.391117	0.049359	0.376798	0.908301	0.181692
11303		9.616449	0.461375	1.837258	0.005352	-0.013203	0.020775	1.000000	0.000067	-0.000165	0.000260	-0.115101	-0.148102	0.982251	0.919114	-0.390963	0.048754	0.376803	0.908413	0.181122
11304		9.716175	0.590328	1.854352	-0.014363	0.005842	0.009930	1.000000	-0.000180	0.000073	0.000124	-0.114737	-0.148173	0.982283	0.919020	-0.391236	0.048331	0.377144	0.908283	0.181063
11305		9.749143	0.535676	1.797321	-0.016337	0.038783	-0.024932	1.000000	-0.000204	0.000485	-0.000312	-0.115481	-0.148615	0.982129	0.918767	-0.391779	0.048747	0.377533	0.907978	0.181785
11306		9.738289	0.369998	1.656538	-0.006485	0.032769	-0.022289	1.000000	-0.000081	0.000410	-0.000279	-0.116066	-0.149028	0.981998	0.918712	-0.391863	0.049117	0.377488	0.907873	0.182396
11307		9.722593	0.365493	1.715883	0.016538	-0.000223	0.007911	1.000000	0.000207	-0.000003	0.000099	-0.115719	-0.148930	0.982053	0.918881	-0.391492	0.048905	0.377183	0.908049	0.182152
11308		9.675148	0.492013	1.804359	0.005151	-0.010818	0.021639	1.000000	0.000064	-0.000135	0.000270	-0.114963	-0.148783	0.982165	0.919045	-0.391180	0.048318	0.377014	0.908208	0.181709
11309		9.741825	0.597639	1.803577	-0.045035	0.018001	0.005187	1.000000	-0.000563	0.000225	0.000065	-0.114742	-0.149115	0.982140	0.918701	-0.392051	0.047807	0.377920	0.907778	0.181977
11310		9.727988	0.467799	1.699684	-0.056672	0.038399	-0.015524	1.000000	-0.000708	0.000480	-0.000194	-0.115279	-0.149673	0.981992	0.918128	-0.393388	0.047823	0.379146	0.907108	0.182768
11311		9.696456	0.365823	1.632743	-0.006958	0.015575	-0.007588	1.000000	-0.000087	0.000195	-0.000095	-0.115415	-0.149848	0.981950	0.918110	-0.393424	0.047874	0.379148	0.907063	0.182984
11312		9.700522	0.439371	1.721231	0.025038	-0.019131	0.010909	1.000000	0.000313	-0.000239	0.000136	-0.114836	-0.149312	0.982099	0.918326	-0.392948	0.047638	0.378801	0.907358	0.182241
11313		9.737893	0.551069	1.840510	0.011149	-0.011156	0.009825	1.000000	0.000139	-0.000139	0.000123	-0.114321	-0.148995	0.982207	0.918471	-0.392644	0.047341	0.378604	0.907541	0.181735
11314		9.690079	0.562739	1.833869	-0.020739	0.021811	-0.006671	1.000000	-0.000259	0.000273	-0.000083	-0.114540	-0.149259	0.982142	0.918248	-0.393166	0.047338	0.379079	0.907272	0.182090
11315		9.647847	0.527574	1.754308	-0.026371	0.028883	-0.011606	1.000000	-0.000330	0.000361	-0.000145	-0.114969	-0.149649	0.982032	0.917967	-0.393808	0.047458	0.379631	0.906929	0.182649
11316		9.696103	0.472230	1.712247	-0.011662	0.008696	-0.012498	1.000000	-0.000146	0.000109	-0.000156	-0.115155	-0.149563	0.982023	0.917832	-0.394104	0.047605	0.379899	0.906815	0.182657
11317		9.751120	0.460657	1.743986	0.003151	0.000219	-0.009363	1.000000	0.000039	0.000003	-0.000117	-0.115211	-0.149313	0.982055	0.917837	-0.394074	0.047761	0.379871	0.906869	0.182447
11318		9.729459	0.496336	1.792301	0.008685	0.002063	-0.005146	1.000000	0.000109	0.000026	-0.000064	-0.115200	-0.149146	0.982082	0.917904	-0.393908	0.047850	0.379713	0.906969	0.182280
11319		9.643787	0.508025	1.802558	0.008513	0.010235	-0.011805	1.000000	0.000106	0.000128	-0.000148	-0.115372	-0.149070	0.982073	0.917930	-0.393822	0.048057	0.379598	0.907018	0.182272
11320		9.647360	0.501598	1.823869	-0.004012	0.010107	-0.017940	1.000000	-0.000050	0.000126	-0.000224	-0.115713	-0.148962	0.982049	0.917845	-0.393978	0.048387	0.379698	0.906968	0.182312
11321		9.728393	0.471500	1.800760	-0.012055	0.017445	-0.019410	1.000000	-0.000151	0.000218	-0.000243	-0.116118	-0.149012	0.981994	0.917698	-0.394284	0.048685	0.379930	0.906827	0.182532
11322		9.719742	0.444304	1.755254	-0.009418	0.023783	-0.021363	1.000000	-0.000118	0.000297	-0.000267	-0.116634	-0.149185	0.981906	0.917566	-0.394547	0.049046	0.380091	0.906685	0.182905
11323		9.702624	0.412394	1.728814	0.001350	0.015108	-0.019153	1.000000	0.000017	0.000189	-0.000239	-0.117097	-0.149167	0.981854	0.917505	-0.394636	0.049468	0.380096	0.906649	0.183072
11324		9.648787	0.392109	1.759607	0.013593	0.000889	-0.014932	1.000000	0.000170	0.000011	-0.000187	-0.117269	-0.148858	0.981880	0.917577	-0.394427	0.049791	0.379869	0.906790	0.182843
11325		9.711452	0.454856	1.797552	0.011596	-0.001659	-0.005253	1.000000	0.000145	-0.000021	-0.000066	-0.117189	-0.148591	0.981931	0.917661	-0.394223	0.049863	0.379690	0.906923	0.182554
11326		9.842135	0.532181	1.740411	-0.027206	0.025330	-0.021076	1.000000	-0.000340	0.000317	-0.000263	-0.117754	-0.148830	0.981827	0.917383	-0.394830	0.050175	0.380187	0.906619	0.183026
11327		9.700812	0.270717	1.654613	-0.002477	0.019205	-0.027937	1.000000	-0.000031	0.000240	-0.000349	-0.118366	-0.148832	0.981753	0.917301	-0.394951	0.050721	0.380196	0.906566	0.183273
11328		9.578710	0.292984	1.751749	0.042470	-0.025178	0.008591	1.000000	0.000531	-0.000315	0.000107	-0.117702	-0.148155	0.981935	0.917720	-0.393997	0.050558	0.379389	0.907092	0.182339
11329		9.705783	0.515333	1.893182	0.006239	-0.025072	0.023386	1.000000	0.000078	-0.000313	0.000292	-0.116756	-0.147673	0.982121	0.917874	-0.393721	0.049917	0.379310	0.907291	0.181514
11330		9.757336	0.516261	1.834175	-0.039971	0.026728	0.001286	1.000000	-0.000500	0.000334	0.000016	-0.116786	-0.148121	0.982049	0.917503	-0.394625	0.049589	0.380196	0.906825	0.181988
11331		9.727176	0.418428	1.726528	-0.030291	0.038970	-0.005183	1.000000	-0.000379	0.000487	-0.000065	-0.117075	-0.148803	0.981912	0.917223	-0.395291	0.049458	0.380782	0.906423	0.182764
11332		9.691405	0.408414	1.678536	-0.002188	-0.007187	0.016083	1.000000	-0.000027	-0.000090	0.000201	-0.116415	-0.148612	0.982019	0.917243	-0.395313	0.048911	0.380937	0.906445	0.182334
11333		9.697800	0.480488	1.779557	0.015892	-0.029966	0.024950	1.000000	0.000199	-0.000375	0.000312	-0.115354	-0.147995	0.982238	0.917456	-0.394900	0.048246	0.380746	0.906725	0.181332
11334		9.655343	0.601600	1.842142	0.001148	-0.005804	0.017183	1.000000	0.000014	-0.000073	0.000215	-0.114809	-0.147890	0.982317	0.917519	-0.394810	0.047796	0.380760	0.906782	0.181019
11335		9.674636	0.637968	1.764257	-0.033699	0.017968	-0.005294	1.000000	-0.000421	0.000225	-0.000066	-0.114931	-0.148063	0.982277	0.917166	-0.395644	0.047675	0.381573	0.906390	0.181270
11336		9.698941	0.507594	1.681949	-0.019749	0.015312	-0.019959	1.000000	-0.000247	0.000191	-0.000249	-0.115379	-0.148046	0.982227	0.916916	-0.396184	0.047992	0.382038	0.906157	0.181457
11337		9.702421	0.444871	1.700875	0.021187	-0.013366	-0.015750	1.000000	0.000265	-0.000167	-0.000197	-0.115404	-0.147431	0.982317	0.917095	-0.395726	0.048349	0.381601	0.906457	0.180876
11338		9.701664	0.508083	1.793702	0.026895	-0.028866	-0.001842	1.000000	0.000336	-0.000361	-0.000023	-0.114982	-0.146601	0.982490	0.917363	-0.395097	0.048406	0.381083	0.906866	0.179915
11339		9.696854	0.563910	1.854142	0.002098	-0.009413	-0.012035	1.000000	0.000026	-0.000118	-0.000150	-0.114990	-0.146095	0.982565	0.917346	-0.395113	0.048609	0.381123	0.906941	0.179454
11340		9.693512	0.509709	1.808830	-0.008969	0.013311	-0.024709	1.000000	-0.000112	0.000166	-0.000309	-0.115565	-0.146045	0.982505	0.917238	-0.395298	0.049129	0.381207	0.906869	0.179641
11341		9.724011	0.451772	1.745104	0.002009	0.008193	-0.024039	1.000000	0.000025	0.000102	-0.000300	-0.116047	-0.145838	0.982479	0.917192	-0.395341	0.049651	0.381173	0.906883	0.179640
11342		9.744863	0.473965	1.739845	0.010337	-0.002027	-0.019445	1.000000	0.000129	-0.000025	-0.000243	-0.116290	-0.145433	0.982510	0.917235	-0.395187	0.050067	0.380994	0.907015	0.179352
11343		9.724389	0.443477	1.759767	0.008945	-0.007057	-0.014998	1.000000	0.000112	-0.000088	-0.000187	-0.116380	-0.144957	0.982570	0.917281	-0.395042	0.050367	0.380855	0.907154	0.178941
11344		9.707466	0.420408	1.783348	0.013077	-0.002302	-0.011323	1.000000	0.000163	-0.000029	-0.000142	-0.116417	-0.144578	0.982621	0.917328	-0.394906	0.050576	0.380730	0.907274	0.178599
11345		9.710524	0.448569	1.801458	0.011839	0.006621	-0.009475	1.000000	0.000148	0.000083	-0.000118	-0.116445	-0.144465	0.982634	0.917436	-0.394640	0.050700	0.380463	0.907408	0.178491
11346		9.738543	0.450466	1.777262	-0.014976	0.013399	-0.007505	1.000000	-0.000187	0.000167	-0.000094	-0.116577	-0.144581	0.982602	0.917327	-0.394890	0.050728	0.380685	0.907281	0.178663
11347		9.734810	0.450778	1.705693	-0.019360	0.012759	-0.000090	1.000000	-0.000242	0.000159	-0.000001	-0.116545	-0.144668	0.982593	0.917094	-0.395452	0.050554	0.381255	0.907022	0.178762
11348		9.708935	0.444317	1.695183	0.005236	0.006741	-0.003202	1.000000	0.000065	0.000084	-0.000040	-0.116546	-0.144604	0.982602	0.917102	-0.395431	0.050583	0.381237	0.907041	0.178702
11349		9.682830	0.472810	1.711115	0.024960	0.001415	-0.004781	1.000000	0.000312	0.000018	-0.000060	-0.116522	-0.144423	0.982632	0.917317	-0.394913	0.050734	0.380727	0.907296	0.178497
11350		9.724376	0.484534	1.727747	0.012830	0.004713	-0.003991	1.000000	0.000160	0.000059	-0.000050	-0.116469	-0.144295	0.982656	0.917399	-0.394717	0.050773	0.380545	0.907401	0.178349
11351		9.693499	0.498170	1.752258	-0.002029	-0.001480	0.004831	1.000000	-0.000025	-0.000018	0.000060	-0.116194	-0.144176	0.982707	0.917422	-0.394691	0.050568	0.380574	0.907432	0.178130
11352		9.809601	0.590867	1.690739	-0.009978	0.003946	-0.001488	1.000000	-0.000125	0.000049	-0.000019	-0.116110	-0.144087	0.982730	0.917317	-0.394945	0.050475	0.380851	0.907336	0.178030
11353		9.790478	0.456416	1.659591	0.005109	0.017340	-0.021917	1.000000	0.000064	0.000217	-0.000274	-0.116604	-0.144119	0.982666	0.917329	-0.394858	0.050940	0.380672	0.907368	0.178246
11354		9.620090	0.360388	1.735608	0.048519	-0.011021	-0.000644	1.000000	0.000606	-0.000138	-0.000008	-0.116274	-0.143708	0.982766	0.917826	-0.393691	0.051022	0.379574	0.907940	0.177675
11355		9.649646	0.545214	1.903585	0.031084	-0.028599	0.023618	1.000000	0.000389	-0.000357	0.000295	-0.115275	-0.143112	0.982970	0.918180	-0.392936	0.050469	0.379022	0.908361	0.176699
11356		9.730893	0.650540	1.916274	-0.027858	0.014201	0.003503	1.000000	-0.000348	0.000178	0.000044	-0.115211	-0.143339	0.982945	0.917943	-0.393522	0.050207	0.379613	0.908072	0.176915
11357		9.759813	0.516654	1.785402	-0.037985	0.045996	-0.017934	1.000000	-0.000475	0.000575	-0.000224	-0.115914	-0.144047	0.982759	0.917526	-0.394470	0.050400	0.380408	0.907548	0.177892
11358		9.737531	0.420180	1.701354	-0.005166	0.028783	-0.007829	1.000000	-0.000065	0.000360	-0.000098	-0.116178	-0.144449	0.982668	0.917448	-0.394643	0.050455	0.380515	0.907409	0.178373
11359		9.732593	0.478602	1.756420	0.020436	-0.006168	0.011952	1.000000	0.000255	-0.000077	0.000149	-0.115646	-0.144267	0.982758	0.917692	-0.394117	0.050134	0.380088	0.907667	0.177971
11360		9.654853	0.574630	1.814410	0.018302	-0.001026	0.006690	1.000000	0.000229	-0.000013	0.000084	-0.115338	-0.144113	0.982817	0.917835	-0.393806	0.049967	0.379838	0.907826	0.177692
11361		9.656468	0.618805	1.821133	-0.010085	0.036828	-0.010454	1.000000	-0.000126	0.000460	-0.000131	-0.115710	-0.144674	0.982691	0.917715	-0.394074	0.050043	0.380013	0.907621	0.178368
11362		9.721552	0.543993	1.689538	-0.028062	0.051593	-0.030376	1.000000	-0.000351	0.000645	-0.000380	-0.116713	-0.145366	0.982470	0.917347	-0.394867	0.050552	0.380596	0.907165	0.179437
11363		9.755936	0.385533	1.624321	-0.004031	0.029726	-0.022129	1.000000	-0.000050	0.000372	-0.000277	-0.117368	-0.145649	0.982350	0.917217	-0.395110	0.051005	0.380708	0.907014	0.179965
11364		9.714749	0.431658	1.669078	0.021149	-0.008387	0.004444	1.000000	0.000264	-0.000105	0.000056	-0.116987	-0.145335	0.982442	0.917434	-0.394624	0.050869	0.380302	0.907276	0.179501
11365		9.675467	0.528765	1.767613	0.025258	-0.007579	0.004506	1.000000	0.000316	-0.000095	0.000056	-0.116599	-0.145055	0.982529	0.917718	-0.393979	0.050743	0.379735	0.907601	0.179057
11366		9.671030	0.555737	1.793441	0.003996	0.021647	-0.014341	1.000000	0.000050	0.000271	-0.000179	-0.116961	-0.145219	0.982462	0.917688	-0.394014	0.051010	0.379697	0.907559	0.179350
11367		9.730444	0.478926	1.694413	-0.026156	0.039092	-0.020396	1.000000	-0.000327	0.000489	-0.000255	-0.117635	-0.145716	0.982308	0.917348	-0.394767	0.051296	0.380308	0.907153	0.180111
11368		9.734211	0.405836	1.635390	-0.014817	0.019428	-0.005197	1.000000	-0.000185	0.000243	-0.000065	-0.117765	-0.145946	0.982258	0.917198	-0.395120	0.051257	0.380629	0.906962	0.180393
11369		9.711027	0.457921	1.669229	0.013731	-0.009666	0.003829	1.000000	0.000172	-0.000121	0.000048	-0.117411	-0.145619	0.982349	0.917364	-0.394752	0.051128	0.380339	0.907175	0.179934
11370		9.687701	0.501722	1.770612	0.018496	-0.009516	-0.000246	1.000000	0.000231	-0.000119	-0.000003	-0.117104	-0.145232	0.982443	0.917554	-0.394316	0.051079	0.379975	0.907426	0.179434
11371		9.706072	0.492582	1.776810	-0.002298	0.014402	-0.004588	1.000000	-0.000029	0.000180	-0.000057	-0.117196	-0.145354	0.982414	0.917519	-0.394396	0.051101	0.380033	0.907372	0.179587
11372		9.685320	0.482639	1.744477	-0.014425	0.016605	0.001029	1.000000	-0.000180	0.000208	0.000013	-0.117146	-0.145584	0.982386	0.917400	-0.394698	0.050905	0.380335	0.907204	0.179796
11373		9.692613	0.521927	1.726130	-0.004926	0.001012	0.002946	1.000000	-0.000062	0.000013	0.000037	-0.116859	-0.145469	0.982437	0.917380	-0.394776	0.050667	0.380472	0.907189	0.179583
11374		9.699050	0.498097	1.747241	0.002176	-0.003483	-0.000476	1.000000	0.000027	-0.000044	-0.000006	-0.116598	-0.145205	0.982507	0.917407	-0.394728	0.050536	0.380485	0.907252	0.179237
11375		9.702439	0.521903	1.794234	0.003797	0.004035	-0.001634	1.000000	0.000047	0.000050	-0.000020	-0.116482	-0.145114	0.982535	0.917443	-0.394651	0.050477	0.380434	0.907299	0.179103
11376		9.728555	0.536222	1.767239	-0.010711	0.011228	-0.007492	1.000000	-0.000134	0.000140	-0.000094	-0.116593	-0.145125	0.982520	0.917313	-0.394949	0.050518	0.380713	0.907168	0.179173
11377		9.678881	0.472230	1.730308	-0.012257	0.005199	-0.006674	1.000000	-0.000153	0.000065	-0.000083	-0.116608	-0.144980	0.982539	0.917145	-0.395339	0.050512	0.381113	0.907021	0.179067
11378		9.629407	0.496450	1.748116	0.021991	-0.008381	0.002550	1.000000	0.000275	-0.000105	0.000032	-0.116239	-0.144623	0.982636	0.917352	-0.394873	0.050400	0.380727	0.907282	0.178570
11379		9.798967	0.662462	1.787702	0.004957	0.005872	-0.015365	1.000000	0.000062	0.000073	-0.000192	-0.116504	-0.144453	0.982629	0.917359	-0.394815	0.050725	0.380630	0.907334	0.178512
11380		9.774393	0.422415	1.750900	-0.019323	0.019670	-0.037123	1.000000	-0.000242	0.000246	-0.000464	-0.117373	-0.144367	0.982538	0.917066	-0.395402	0.051454	0.381069	0.907092	0.178804
11381		9.623732	0.291331	1.733630	0.009335	-0.004336	-0.001713	1.000000	0.000117	-0.000054	-0.000021	-0.117179	-0.144088	0.982602	0.917158	-0.395192	0.051424	0.380907	0.907227	0.178460
11382		9.627251	0.515673	1.835311	0.010241	-0.016949	0.019437	1.000000	0.000128	-0.000212	0.000243	-0.116379	-0.143720	0.982752	0.917306	-0.394920	0.050874	0.380797	0.907404	0.177795
11383		9.741970	0.561712	1.829779	-0.005065	0.014101	-0.011859	1.000000	-0.000063	0.000176	-0.000148	-0.116610	-0.143795	0.982713	0.917264	-0.394996	0.051046	0.380828	0.907359	0.177959
11384		9.822223	0.422576	1.752481	-0.000427	0.042320	-0.029103	1.000000	-0.000005	0.000529	-0.000364	-0.117499	-0.144280	0.982536	0.917147	-0.395188	0.051648	0.380835	0.907199	0.178760
11385		9.749031	0.380806	1.696409	-0.002786	0.020772	0.000499	1.000000	-0.000035	0.000260	0.000006	-0.117475	-0.144609	0.982491	0.917156	-0.395188	0.051497	0.380821	0.907147	0.179054
11386		9.659405	0.467947	1.728915	-0.003604	-0.018731	0.025299	1.000000	-0.000045	-0.000234	0.000316	-0.116537	-0.144270	0.982652	0.917196	-0.395192	0.050753	0.381014	0.907199	0.178378
11387		9.639370	0.573416	1.803632	-0.007203	-0.011990	0.014370	1.000000	-0.000090	-0.000150	0.000180	-0.115894	-0.143995	0.982769	0.917201	-0.395244	0.050250	0.381198	0.907220	0.177879
11388		9.732949	0.627264	1.749658	-0.027734	0.030335	-0.009030	1.000000	-0.000347	0.000379	-0.000113	-0.116241	-0.144419	0.982665	0.916886	-0.395971	0.050265	0.381848	0.906835	0.178444
11389		9.747423	0.490472	1.646049	-0.032530	0.040650	-0.018321	1.000000	-0.000407	0.000508	-0.000229	-0.116822	-0.144975	0.982515	0.916518	-0.396803	0.050425	0.382555	0.906382	0.179228
11390		9.696444	0.405060	1.609988	0.006150	-0.004746	0.000829	1.000000	0.000077	-0.000059	0.000010	-0.116583	-0.144700	0.982583	0.916565	-0.396705	0.050329	0.382513	0.906469	0.178877
11391		9.673023	0.518960	1.752269	0.034077	-0.034612	0.017503	1.000000	0.000426	-0.000433	0.000219	-0.115697	-0.143957	0.982797	0.916970	-0.395815	0.049970	0.381812	0.906977	0.177799
11392		9.682954	0.665237	1.843194	0.007849	-0.009792	-0.001768	1.000000	0.000098	-0.000122	-0.000022	-0.115429	-0.143566	0.982886	0.917070	-0.395590	0.049917	0.381654	0.907137	0.177322
11393		9.691090	0.601541	1.783299	-0.027605	0.031707	-0.028482	1.000000	-0.000345	0.000396	-0.000356	-0.116214	-0.143849	0.982752	0.916735	-0.396304	0.050398	0.382218	0.906780	0.177928
11394		9.699672	0.433807	1.685875	-0.007554	0.028245	-0.029519	1.000000	-0.000094	0.000353	-0.000369	-0.117025	-0.144010	0.982632	0.916534	-0.396689	0.051017	0.382452	0.906587	0.178413
11395		9.721580	0.419816	1.713026	0.039668	-0.006640	-0.015327	1.000000	0.000496	-0.000083	-0.000192	-0.117159	-0.143563	0.982682	0.916882	-0.395824	0.051487	0.381577	0.907035	0.178005
11396		9.721879	0.509162	1.825042	0.038863	-0.021053	-0.003673	1.000000	0.000486	-0.000263	-0.000046	-0.116916	-0.142859	0.982813	0.917191	-0.395083	0.051681	0.380910	0.907469	0.177220
11397		9.734983	0.520284	1.895568	-0.005446	0.009889	-0.012537	1.000000	-0.000068	0.000124	-0.000157	-0.117134	-0.142832	0.982791	0.917139	-0.395176	0.051877	0.380966	0.907433	0.177285
11398		9.697689	0.439228	1.789189	-0.026238	0.035616	-0.015866	1.000000	-0.000328	0.000445	-0.000198	-0.117687	-0.143341	0.982651	0.916854	-0.395811	0.052070	0.381481	0.907076	0.178005
11399		9.686905	0.384303	1.727971	-0.004727	0.022624	-0.006195	1.000000	-0.000059	0.000283	-0.000077	-0.117872	-0.143607	0.982590	0.916763	-0.396019	0.052096	0.381643	0.906943	0.178333
11400		9.733313	0.447202	1.753888	0.017908	0.003668	0.001640	1.000000	0.000224	0.000046	0.000020	-0.117688	-0.143535	0.982623	0.916929	-0.395643	0.052027	0.381300	0.907119	0.178174
11401		9.740977	0.484760	1.793623	0.013558	0.012629	-0.001757	1.000000	0.000169	0.000158	-0.000022	-0.117667	-0.143661	0.982607	0.917078	-0.395300	0.052026	0.380950	0.907248	0.178262
11402		9.724436	0.451197	1.738639	0.003477	0.034364	-0.008585	1.000000	0.000043	0.000430	-0.000107	-0.117986	-0.144198	0.982490	0.917103	-0.395227	0.052127	0.380790	0.907195	0.178876
11403		9.710544	0.385822	1.703755	0.004938	0.031871	-0.003485	1.000000	0.000062	0.000398	-0.000044	-0.118227	-0.144750	0.982380	0.917153	-0.395108	0.052159	0.380596	0.907159	0.179470
11404		9.702524	0.428609	1.642747	0.007216	0.009312	0.011616	1.000000	0.000090	0.000116	0.000145	-0.117902	-0.144922	0.982393	0.917250	-0.394926	0.051825	0.380462	0.907211	0.179492
11405		9.650955	0.458623	1.716917	0.013884	-0.006289	0.020018	1.000000	0.000174	-0.000079	0.000250	-0.117167	-0.144813	0.982497	0.917455	-0.394523	0.051261	0.380195	0.907403	0.179084
11406		9.810179	0.634261	1.733315	-0.007555	0.011260	0.013015	1.000000	-0.000094	0.000141	0.000163	-0.116805	-0.145016	0.982511	0.917397	-0.394717	0.050804	0.380446	0.907287	0.179142
11407		9.796394	0.472076	1.650759	-0.033525	0.025547	-0.009005	1.000000	-0.000419	0.000319	-0.000113	-0.117074	-0.145356	0.982428	0.917066	-0.395489	0.050770	0.381160	0.906896	0.179602
11408		9.613787	0.340248	1.698062	-0.001624	-0.013301	0.024104	1.000000	-0.000020	-0.000166	0.000301	-0.116222	-0.145140	0.982561	0.917131	-0.395427	0.050072	0.381264	0.906957	0.179070
11409		9.574882	0.580475	1.807503	-0.013515	-0.039638	0.049969	1.000000	-0.000169	-0.000495	0.000625	-0.114518	-0.144558	0.982847	0.917131	-0.395602	0.048676	0.381780	0.906974	0.177883
11410		9.721223	0.637552	1.832108	-0.034592	-0.000369	0.009308	1.000000	-0.000432	-0.000005	0.000116	-0.114112	-0.144446	0.982911	0.916793	-0.396446	0.048175	0.382713	0.906623	0.177666
11411		9.775491	0.482349	1.753849	-0.006321	0.048854	-0.020386	1.000000	-0.000079	0.000611	-0.000255	-0.114891	-0.145158	0.982715	0.916627	-0.396783	0.048555	0.382876	0.906362	0.178643
11412		9.740448	0.444015	1.681827	0.013623	0.021494	-0.006234	1.000000	0.000170	0.000269	-0.000078	-0.115070	-0.145386	0.982661	0.916695	-0.396613	0.048666	0.382661	0.906400	0.178913
11413		9.720239	0.462172	1.760544	0.036752	-0.024952	0.016431	1.000000	0.000459	-0.000312	0.000205	-0.114282	-0.144824	0.982835	0.917096	-0.395726	0.048326	0.381935	0.906877	0.178042
11414		9.679271	0.592708	1.854477	0.043493	-0.013614	0.012726	1.000000	0.000544	-0.000170	0.000159	-0.113691	-0.144472	0.982956	0.917533	-0.394738	0.048107	0.381060	0.907364	0.177436
11415		9.677174	0.703836	1.839656	0.002642	0.030727	-0.008857	1.000000	0.000033	0.000384	-0.000111	-0.114049	-0.144937	0.982846	0.917539	-0.394705	0.048265	0.380938	0.907304	0.178001
11416		9.670836	0.496980	1.712382	-0.019278	0.039300	-0.029191	1.000000	-0.000241	0.000491	-0.000365	-0.114886	-0.145357	0.982686	0.917258	-0.395297	0.048765	0.381364	0.906980	0.178744
11417		9.693422	0.377003	1.672352	0.026514	0.013274	-0.016124	1.000000	0.000331	0.000166	-0.000202	-0.115213	-0.145391	0.982643	0.917528	-0.394616	0.049192	0.380615	0.907271	0.178865
11418		9.709638	0.492978	1.763525	0.048394	-0.008850	-0.000835	1.000000	0.000605	-0.000111	-0.000010	-0.114997	-0.145029	0.982722	0.917988	-0.393526	0.049346	0.379571	0.907801	0.178389
11419		9.744211	0.544488	1.802046	0.019340	0.013043	-0.010064	1.000000	0.000242	0.000163	-0.000126	-0.115167	-0.145063	0.982697	0.918144	-0.393133	0.049569	0.379140	0.907966	0.178464
11420		9.737794	0.482476	1.729367	-0.017396	0.035445	-0.018234	1.000000	-0.000217	0.000443	-0.000228	-0.115729	-0.145536	0.982561	0.917947	-0.393561	0.049825	0.379446	0.907705	0.179141
11421		9.713355	0.412945	1.638394	-0.006021	0.025218	-0.008291	1.000000	-0.000075	0.000315	-0.000104	-0.116014	-0.145843	0.982482	0.917826	-0.393832	0.049918	0.379653	0.907538	0.179549
11422		9.709350	0.461743	1.666845	0.024434	0.000607	-0.003870	1.000000	0.000305	0.000008	-0.000048	-0.115933	-0.145674	0.982516	0.918070	-0.393249	0.050023	0.379087	0.907818	0.179330
11423		9.708401	0.494992	1.722797	0.019771	-0.008500	0.000967	1.000000	0.000247	-0.000106	0.000012	-0.115656	-0.145358	0.982596	0.918298	-0.392720	0.049992	0.378618	0.908098	0.178903
11424		9.720295	0.523198	1.749592	-0.008519	0.002337	0.004068	1.000000	-0.000106	0.000029	0.000051	-0.115395	-0.145280	0.982638	0.918228	-0.392916	0.049740	0.378867	0.908026	0.178741
11425		9.670676	0.529534	1.726606	-0.030671	0.016731	0.004386	1.000000	-0.000383	0.000209	0.000055	-0.115249	-0.145548	0.982616	0.917973	-0.393557	0.049373	0.379529	0.907705	0.178966
11426		9.655634	0.530841	1.684265	-0.020027	0.006184	0.002572	1.000000	-0.000250	0.000077	0.000032	-0.115117	-0.145569	0.982628	0.917796	-0.393999	0.049153	0.379999	0.907510	0.178959
11427		9.681770	0.559184	1.699554	-0.000864	-0.001649	-0.004579	1.000000	-0.000011	-0.000021	-0.000057	-0.115044	-0.145332	0.982672	0.917781	-0.394031	0.049172	0.380057	0.907534	0.178714
11428		9.722532	0.587509	1.730103	-0.004491	-0.000722	-0.007967	1.000000	-0.000056	-0.000009	-0.000100	-0.115053	-0.145057	0.982711	0.917693	-0.394226	0.049249	0.380266	0.907494	0.178474
11429		9.695020	0.537838	1.744097	-0.007607	0.004682	-0.013030	1.000000	-0.000095	0.000059	-0.000163	-0.115208	-0.144857	0.982723	0.917574	-0.394482	0.049422	0.380507	0.907414	0.178364
11430		9.686782	0.504955	1.707568	0.006091	0.006735	-0.020506	1.000000	0.000076	0.000084	-0.000256	-0.115583	-0.144642	0.982710	0.917565	-0.394446	0.049864	0.380413	0.907464	0.178310
11431		9.726601	0.498590	1.724415	0.003957	0.003924	-0.020752	1.000000	0.000049	0.000049	-0.000259	-0.115918	-0.144375	0.982710	0.917563	-0.394397	0.050290	0.380318	0.907528	0.178190
11432		9.668528	0.446983	1.747084	0.001999	-0.006700	-0.009716	1.000000	0.000025	-0.000084	-0.000121	-0.115906	-0.143988	0.982768	0.917587	-0.394321	0.050446	0.380263	0.907622	0.177826
11433		9.733194	0.574728	1.788156	-0.000297	-0.007616	-0.005128	1.000000	-0.000004	-0.000095	-0.000064	-0.115762	-0.143590	0.982843	0.917564	-0.394373	0.050457	0.380362	0.907663	0.177407
11434		9.808966	0.528977	1.757080	-0.018206	0.015929	-0.032915	1.000000	-0.000228	0.000199	-0.000411	-0.116466	-0.143481	0.982776	0.917335	-0.394828	0.051067	0.380701	0.907482	0.177604
11435		9.682994	0.287342	1.765295	0.000383	0.003625	-0.026126	1.000000	0.000005	0.000045	-0.000327	-0.116881	-0.143122	0.982779	0.917261	-0.394933	0.051575	0.380751	0.907493	0.177441
11436		9.646039	0.362768	1.809946	-0.007556	-0.019658	0.009272	1.000000	-0.000094	-0.000246	0.000116	-0.116311	-0.142609	0.982921	0.917222	-0.395070	0.051217	0.381019	0.907514	0.176755
11437		9.743206	0.436085	1.859218	-0.004260	0.014653	0.009784	1.000000	-0.000053	0.000183	0.000122	-0.116032	-0.142886	0.982914	0.917233	-0.395093	0.050844	0.381078	0.907461	0.176903
11438		9.781071	0.502427	1.809158	0.002123	0.051821	-0.003668	1.000000	0.000027	0.000648	-0.000046	-0.116481	-0.143857	0.982719	0.917214	-0.395133	0.050874	0.380986	0.907290	0.177973
11439		9.773456	0.418878	1.681558	-0.026549	0.035620	-0.003198	1.000000	-0.000332	0.000445	-0.000040	-0.116730	-0.144437	0.982605	0.916903	-0.395872	0.050734	0.381658	0.906876	0.178645
11440		9.737347	0.343265	1.675605	-0.016172	0.001452	0.023925	1.000000	-0.000202	0.000018	0.000299	-0.115979	-0.144524	0.982681	0.916811	-0.396187	0.049937	0.382108	0.906724	0.178450
11441		9.662736	0.446061	1.724187	0.011639	-0.001864	0.036456	1.000000	0.000145	-0.000023	0.000456	-0.114961	-0.144660	0.982781	0.916994	-0.395880	0.048994	0.381975	0.906837	0.178163
11442		9.661518	0.626605	1.740239	-0.004987	0.019113	0.022927	1.000000	-0.000062	0.000239	0.000287	-0.114456	-0.145188	0.982762	0.917044	-0.395848	0.048322	0.382009	0.906766	0.178451
11443		9.718593	0.530243	1.650385	-0.024915	0.034502	-0.005290	1.000000	-0.000311	0.000431	-0.000066	-0.114730	-0.145759	0.982645	0.916797	-0.396429	0.048238	0.382518	0.906421	0.179114
11444		9.719228	0.384197	1.599557	0.003770	0.017979	0.004837	1.000000	0.000047	0.000225	0.000060	-0.114643	-0.146078	0.982608	0.916868	-0.396287	0.048060	0.382375	0.906431	0.179365
11445		9.683088	0.474211	1.676709	0.017057	-0.016132	0.028663	1.000000	0.000213	-0.000202	0.000358	-0.113604	-0.145812	0.982768	0.917111	-0.395818	0.047287	0.382102	0.906679	0.178692
11446		9.667466	0.571846	1.785669	0.002509	-0.020555	0.025554	1.000000	0.000031	-0.000257	0.000319	-0.112591	-0.145440	0.982940	0.917240	-0.395609	0.046529	0.382092	0.906830	0.177945
11447		9.702517	0.561240	1.794271	-0.023654	0.012016	0.003267	1.000000	-0.000296	0.000150	0.000041	-0.112428	-0.145601	0.982935	0.917062	-0.396057	0.046226	0.382567	0.906609	0.178053
11448		9.717707	0.473201	1.699882	-0.020931	0.028203	-0.002689	1.000000	-0.000262	0.000353	-0.000034	-0.112578	-0.146034	0.982853	0.916836	-0.396595	0.046090	0.383064	0.906304	0.178537
11449		9.695102	0.474503	1.694952	0.002851	0.010687	0.002421	1.000000	0.000036	0.000134	0.000030	-0.112446	-0.146131	0.982854	0.916867	-0.396542	0.045938	0.383030	0.906311	0.178572
11450		9.686830	0.544220	1.774511	0.012030	-0.005862	0.004580	1.000000	0.000150	-0.000073	0.000057	-0.112092	-0.145886	0.982931	0.917012	-0.396224	0.045767	0.382784	0.906490	0.178193
11451		9.746316	0.483449	1.856828	-0.023340	0.012204	-0.002808	1.000000	-0.000292	0.000153	-0.000035	-0.112072	-0.145968	0.982921	0.916790	-0.396756	0.045611	0.383322	0.906244	0.178287
11452		9.740852	0.359178	1.783220	-0.046391	0.028615	0.007274	1.000000	-0.000580	0.000358	0.000091	-0.112005	-0.146557	0.982841	0.916408	-0.397694	0.045132	0.384255	0.905738	0.178850
11453		9.690190	0.382775	1.748648	-0.021663	0.021807	0.007036	1.000000	-0.000271	0.000273	0.000088	-0.111894	-0.146965	0.982792	0.916223	-0.398158	0.044775	0.384727	0.905467	0.179204
11454		9.701514	0.447893	1.796060	0.004340	0.012002	0.004305	1.000000	0.000054	0.000150	0.000054	-0.111777	-0.147112	0.982784	0.916251	-0.398113	0.044616	0.384696	0.905463	0.179291
11455		9.769759	0.395902	1.802904	-0.014261	0.012944	-0.005085	1.000000	-0.000178	0.000162	-0.000064	-0.111839	-0.147177	0.982767	0.916081	-0.398509	0.044571	0.385081	0.905279	0.179395
11456		9.738876	0.320315	1.774120	-0.016759	0.029452	0.001916	1.000000	-0.000209	0.000368	0.000024	-0.111886	-0.147697	0.982684	0.915929	-0.398884	0.044333	0.385429	0.905029	0.179909
11457		9.698216	0.371650	1.750592	0.001058	0.020750	0.000615	1.000000	0.000013	0.000259	0.000008	-0.111866	-0.148030	0.982636	0.915981	-0.398779	0.044204	0.385311	0.905021	0.180203
11458		9.749572	0.392112	1.739892	0.005175	0.012523	-0.001600	1.000000	0.000065	0.000157	-0.000020	-0.111849	-0.148129	0.982623	0.916017	-0.398700	0.044164	0.385230	0.905039	0.180283
11459		9.691923	0.360247	1.738100	-0.003919	0.019027	0.001874	1.000000	-0.000049	0.000238	0.000023	-0.111774	-0.148422	0.982587	0.916011	-0.398736	0.043971	0.385267	0.904975	0.180525
11460		9.675783	0.452043	1.724327	0.001910	0.009403	0.014637	1.000000	0.000024	0.000118	0.000183	-0.111316	-0.148623	0.982609	0.916094	-0.398598	0.043491	0.385202	0.905003	0.180523
11461		9.801706	0.530901	1.694822	-0.004235	0.021669	-0.014330	1.000000	-0.000053	0.000271	-0.000179	-0.111658	-0.148846	0.982536	0.916074	-0.398620	0.043717	0.385152	0.904957	0.180863
11462		9.713928	0.255991	1.687769	0.009715	0.013180	-0.024337	1.000000	0.000121	0.000165	-0.000304	-0.112152	-0.148719	0.982499	0.916079	-0.398550	0.044242	0.384995	0.905009	0.180937
11463		9.592520	0.342726	1.756293	0.016554	-0.019227	0.014678	1.000000	0.000207	-0.000240	0.000183	-0.111447	-0.148258	0.982649	0.916271	-0.398152	0.043847	0.384743	0.905259	0.180218
11464		9.663665	0.441368	1.818185	0.001019	-0.009782	0.016792	1.000000	0.000013	-0.000122	0.000210	-0.110745	-0.148036	0.982762	0.916341	-0.398051	0.043301	0.384779	0.905340	0.179733
11465		9.761303	0.502238	1.798841	0.000174	0.027764	-0.006198	1.000000	0.000002	0.000347	-0.000077	-0.110967	-0.148446	0.982675	0.916341	-0.398046	0.043346	0.384715	0.905275	0.180197
11466		9.750123	0.388484	1.720547	-0.003274	0.030578	-0.020793	1.000000	-0.000041	0.000382	-0.000260	-0.111454	-0.148776	0.982570	0.916314	-0.398073	0.043664	0.384638	0.905209	0.180692
11467		9.722991	0.323454	1.693548	0.014312	-0.002408	0.007097	1.000000	0.000179	-0.000030	0.000089	-0.111063	-0.148622	0.982638	0.916474	-0.397730	0.043430	0.384370	0.905385	0.180381
11468		9.664594	0.413364	1.816760	0.034447	-0.015559	0.016477	1.000000	0.000431	-0.000194	0.000206	-0.110368	-0.148251	0.982772	0.916819	-0.396973	0.043078	0.383747	0.905778	0.179732
11469		9.666732	0.510949	1.847463	0.014704	0.007412	0.002456	1.000000	0.000184	0.000093	0.000031	-0.110228	-0.148272	0.982784	0.916944	-0.396692	0.042995	0.383487	0.905898	0.179684
11470		9.744070	0.469536	1.779458	-0.021894	0.038030	-0.019610	1.000000	-0.000274	0.000475	-0.000245	-0.110835	-0.148792	0.982638	0.916716	-0.397191	0.043257	0.383858	0.905594	0.180423
11471		9.776640	0.297109	1.692983	-0.010391	0.029497	-0.012232	1.000000	-0.000130	0.000369	-0.000153	-0.111223	-0.149187	0.982534	0.916599	-0.397445	0.043411	0.384027	0.905417	0.180950
11472		9.703760	0.338747	1.716854	0.024361	-0.007702	0.015329	1.000000	0.000305	-0.000096	0.000192	-0.110658	-0.149001	0.982626	0.916853	-0.396895	0.043068	0.383582	0.905690	0.180531
11473		9.678383	0.474889	1.832521	0.024539	-0.016091	0.015233	1.000000	0.000307	-0.000201	0.000190	-0.109946	-0.148637	0.982761	0.917163	-0.396220	0.042681	0.383045	0.906045	0.179887
11474		9.688759	0.481049	1.859033	0.001007	0.016716	-0.006125	1.000000	0.000013	0.000209	-0.000077	-0.110036	-0.148764	0.982732	0.917131	-0.396292	0.042701	0.383096	0.905992	0.180042
11475		9.718937	0.432565	1.798118	-0.018230	0.039327	-0.010624	1.000000	-0.000228	0.000492	-0.000133	-0.110437	-0.149411	0.982588	0.916980	-0.396636	0.042751	0.383342	0.905735	0.180810
11476		9.710436	0.418733	1.694054	-0.008824	0.023484	-0.003082	1.000000	-0.000110	0.000294	-0.000039	-0.110568	-0.149749	0.982522	0.916878	-0.396879	0.042691	0.383549	0.905573	0.181184
11477		9.690489	0.444527	1.733493	0.021069	-0.003731	-0.001025	1.000000	0.000263	-0.000047	-0.000013	-0.110354	-0.149522	0.982581	0.917131	-0.396293	0.042698	0.383005	0.905867	0.180863
11478		9.712531	0.519902	1.802382	0.019885	-0.001799	-0.005913	1.000000	0.000249	-0.000022	-0.000074	-0.110267	-0.149269	0.982629	0.917332	-0.395815	0.042812	0.382549	0.906118	0.180575
11479		9.688966	0.463766	1.777880	-0.008236	0.019099	-0.012489	1.000000	-0.000103	0.000239	-0.000156	-0.110539	-0.149424	0.982575	0.917240	-0.396010	0.042967	0.382689	0.906007	0.180832
11480		9.650963	0.447242	1.754786	-0.013420	0.017443	-0.007491	1.000000	-0.000168	0.000218	-0.000094	-0.110709	-0.149569	0.982534	0.917068	-0.396407	0.042988	0.383054	0.905809	0.181051
11481		9.690077	0.456039	1.758290	0.003047	0.003516	-0.011075	1.000000	0.000038	0.000044	-0.000138	-0.110811	-0.149374	0.982552	0.917066	-0.396393	0.043164	0.383029	0.905848	0.180910
11482		9.734864	0.461926	1.766703	0.003751	0.006623	-0.021573	1.000000	0.000047	0.000083	-0.000270	-0.111193	-0.149154	0.982542	0.917052	-0.396377	0.043610	0.382952	0.905891	0.180857
11483		9.707171	0.416703	1.752701	0.005628	0.013098	-0.018526	1.000000	0.000070	0.000164	-0.000232	-0.111520	-0.149104	0.982513	0.917075	-0.396284	0.043953	0.382801	0.905940	0.180934
11484		9.681198	0.413217	1.770421	0.014313	0.006344	-0.019010	1.000000	0.000179	0.000079	-0.000238	-0.111828	-0.148915	0.982507	0.917191	-0.395969	0.044378	0.382433	0.906109	0.180863
11485		9.714282	0.390967	1.780147	0.017652	0.004282	-0.025448	1.000000	0.000221	0.000054	-0.000318	-0.112291	-0.148603	0.982501	0.917289	-0.395672	0.044992	0.382062	0.906290	0.180742
