// Start Time: Unknown
// Update Rate: 40.0Hz
// Filter Profile: human (46.1)
// Firmware Version: 4.3.4
PacketCounter	SampleTimeFine	Acc_X	Acc_Y	Acc_Z	Gyr_X	Gyr_Y	Gyr_Z	OriInc_q0	OriInc_q1	OriInc_q2	OriInc_q3	Mat[1][1]	Mat[2][1]	Mat[3][1]	Mat[1][2]	Mat[2][2]	Mat[3][2]	Mat[1][3]	Mat[2][3]	Mat[3][3]
10839		9.012399	-1.931064	6.328686	0.132333	0.010048	0.013731	0.999999	0.001654	0.000126	0.000172	0.210151	0.553092	0.806180	-0.809724	0.560571	-0.173514	-0.547890	-0.616319	0.565657
10840		9.145087	-2.101354	6.117565	0.291588	0.017938	0.019965	0.999993	0.003645	0.000224	0.000250	0.209990	0.553648	0.805840	-0.813801	0.555788	-0.169787	-0.541878	-0.620140	0.567269
10841		9.606738	-1.949808	6.020672	0.407021	-0.009832	0.080670	0.999987	0.005088	-0.000123	0.001008	0.208218	0.554696	0.805579	-0.819683	0.548328	-0.165698	-0.533633	-0.625819	0.568847
10842		9.674612	-1.517613	6.023646	0.326539	-0.075265	0.132818	0.999990	0.004082	-0.000941	0.001660	0.204467	0.555321	0.806109	-0.824689	0.541360	-0.163758	-0.527334	-0.631306	0.568658
10843		9.385255	-1.371889	5.936523	0.207881	-0.190811	0.109184	0.999993	0.002599	-0.002385	0.001365	0.199692	0.553799	0.808350	-0.827948	0.536573	-0.163072	-0.524047	-0.636707	0.565666
10844		9.203180	-1.492274	5.991598	0.175544	-0.287199	0.048805	0.999991	0.002194	-0.003590	0.000610	0.194920	0.549669	0.812324	-0.830473	0.533141	-0.161481	-0.521844	-0.643137	0.560405
10845		9.212099	-1.638173	6.222423	0.167294	-0.325521	0.012159	0.999990	0.002091	-0.004069	0.000152	0.190449	0.544359	0.816947	-0.832694	0.530337	-0.159261	-0.519953	-0.649936	0.554286
10846		9.101141	-1.762419	6.308154	0.178116	-0.295806	0.016933	0.999991	0.002226	-0.003698	0.000212	0.186280	0.539367	0.821208	-0.835087	0.527273	-0.156884	-0.517619	-0.656556	0.548639
10847		8.992346	-1.903798	6.199366	0.308168	-0.224279	0.016822	0.999989	0.003852	-0.002803	0.000210	0.183147	0.535750	0.824275	-0.839129	0.522017	-0.152845	-0.512172	-0.663680	0.545169
10848		9.006690	-1.917391	5.957808	0.551413	-0.146938	-0.004453	0.999975	0.006893	-0.001837	-0.000056	0.181381	0.533121	0.826367	-0.846076	0.512909	-0.145190	-0.501255	-0.672834	0.544093
10849		9.019360	-1.591220	5.866742	0.701997	-0.111940	-0.038501	0.999960	0.008775	-0.001399	-0.000481	0.180823	0.530662	0.828070	-0.854562	0.501548	-0.134805	-0.486853	-0.683262	0.544175
10850		8.963437	-1.340611	5.946230	0.645704	-0.161839	-0.073168	0.999965	0.008071	-0.002023	-0.000915	0.180353	0.526931	0.830552	-0.861953	0.491436	-0.124612	-0.473825	-0.693423	0.542821
10851		9.164072	-1.473688	5.996252	0.560631	-0.256507	-0.099646	0.999970	0.007008	-0.003206	-0.001246	0.179431	0.521141	0.834396	-0.868052	0.482974	-0.114985	-0.462915	-0.703667	0.539038
10852		9.393800	-1.700931	6.044202	0.600659	-0.297328	-0.130529	0.999964	0.007508	-0.003717	-0.001632	0.178828	0.514355	0.838725	-0.874305	0.474040	-0.104295	-0.451234	-0.714651	0.534474
10853		9.574236	-1.666502	6.198848	0.676107	-0.297107	-0.159666	0.999955	0.008451	-0.003714	-0.001996	0.178761	0.507229	0.843068	-0.881061	0.463912	-0.092294	-0.437923	-0.726295	0.529828
10854		9.867052	-1.637912	6.203173	0.772527	-0.271469	-0.183756	0.999945	0.009656	-0.003393	-0.002297	0.179486	0.500401	0.846985	-0.888487	0.452084	-0.078812	-0.422346	-0.738389	0.525743
10855		9.940047	-1.586593	6.027804	0.912167	-0.242481	-0.226898	0.999926	0.011402	-0.003031	-0.002836	0.181559	0.493572	0.850543	-0.896863	0.437851	-0.062639	-0.403328	-0.751447	0.522162
10856		9.533023	-1.249595	6.036639	0.973908	-0.261970	-0.277603	0.999915	0.012174	-0.003275	-0.003470	0.184673	0.485834	0.854319	-0.905169	0.422694	-0.044712	-0.382839	-0.765046	0.517822
10857		8.859347	-1.057848	5.923324	0.923721	-0.323306	-0.310626	0.999918	0.011546	-0.004041	-0.003883	0.187894	0.476631	0.858789	-0.912403	0.408399	-0.027038	-0.363616	-0.778481	0.511615
10858		8.759409	-1.406158	5.517838	0.964994	-0.337019	-0.300700	0.999911	0.012062	-0.004213	-0.003759	0.190989	0.467599	0.863061	-0.919522	0.392926	-0.009401	-0.343515	-0.791808	0.505012
10859		9.915242	-1.515220	5.316424	1.118002	-0.281545	-0.178827	0.999894	0.013975	-0.003519	-0.002235	0.191547	0.461097	0.866429	-0.927977	0.372575	0.006877	-0.319639	-0.805343	0.499253
10860		11.126421	-1.153564	4.969749	1.124530	-0.177954	0.071432	0.999898	0.014056	-0.002224	0.000893	0.187148	0.458888	0.868560	-0.936994	0.348903	0.017556	-0.294987	-0.817122	0.495272
10861		11.447332	-0.661471	4.373748	1.053859	-0.056972	0.288313	0.999906	0.013173	-0.000712	0.003604	0.178349	0.460540	0.869537	-0.945846	0.323836	0.022484	-0.271233	-0.826458	0.493356
10862		10.864690	-0.133320	3.744109	0.969535	0.006210	0.360962	0.999916	0.012119	0.000078	0.004512	0.167604	0.463446	0.870130	-0.953927	0.299039	0.024472	-0.248862	-0.834142	0.492214
10863		10.397411	0.015272	3.273268	0.852049	-0.000566	0.310599	0.999936	0.010650	-0.000007	0.003882	0.157969	0.465220	0.870986	-0.960400	0.277407	0.026014	-0.229516	-0.840604	0.490619
10864		10.150999	0.090740	2.992702	0.684141	-0.066034	0.266796	0.999958	0.008552	-0.000825	0.003335	0.149716	0.464616	0.872764	-0.965186	0.260160	0.027074	-0.214479	-0.846433	0.487391
10865		9.748454	0.689274	3.209927	0.326134	-0.193466	0.299350	0.999982	0.004077	-0.002418	0.003742	0.139527	0.461025	0.876349	-0.968083	0.249590	0.022829	-0.208203	-0.851564	0.481135
10866		8.756677	1.227213	3.458157	-0.260503	-0.314677	0.276903	0.999981	-0.003256	-0.003933	0.003461	0.129344	0.454370	0.881373	-0.967681	0.251883	0.012157	-0.216479	-0.854461	0.472264
10867		8.597656	0.816227	3.726870	-0.730606	-0.401537	0.150288	0.999944	-0.009132	-0.005019	0.001879	0.122159	0.444974	0.887173	-0.963906	0.266242	-0.000813	-0.236565	-0.855052	0.461437
10868		9.508761	-0.183727	3.873821	-0.778619	-0.366309	0.062690	0.999942	-0.009733	-0.004579	0.000784	0.117471	0.435795	0.892347	-0.959101	0.282816	-0.011860	-0.257538	-0.854458	0.451194
10869		10.710761	-1.020450	3.625492	-0.366716	-0.135605	0.080990	0.999988	-0.004584	-0.001695	0.001012	0.114027	0.431775	0.894745	-0.956614	0.290776	-0.018408	-0.268118	-0.853827	0.446198
10870		10.773904	-1.046713	3.269116	0.246377	0.120323	0.089346	0.999994	0.003080	0.001504	0.001117	0.112181	0.433340	0.894221	-0.958194	0.285543	-0.018168	-0.263212	-0.854799	0.447256
10871		10.243508	-0.395114	3.122599	0.633021	0.168318	0.035226	0.999966	0.007913	0.002104	0.000440	0.111487	0.435278	0.893367	-0.961937	0.272964	-0.012954	-0.249496	-0.857918	0.449142
10872		10.059976	0.016238	3.259963	0.607219	0.057236	-0.077552	0.999970	0.007590	0.000715	-0.000969	0.112571	0.434052	0.893827	-0.965261	0.261234	-0.005290	-0.235795	-0.862181	0.448381
10873		9.991678	0.115274	3.532111	0.337059	-0.068706	-0.176412	0.999988	0.004213	-0.000859	-0.002205	0.115399	0.429306	0.895756	-0.966504	0.256646	0.001511	-0.229243	-0.865927	0.444543
10874		9.724447	0.044511	3.845966	-0.020247	-0.160106	-0.221458	0.999994	-0.000253	-0.002001	-0.002768	0.119333	0.422591	0.898430	-0.965525	0.260245	0.005835	-0.231346	-0.868153	0.439078
10875		9.560265	-0.551735	3.971349	-0.218214	-0.202670	-0.290714	0.999986	-0.002728	-0.002533	-0.003634	0.124360	0.414146	0.901675	-0.962998	0.269354	0.009102	-0.239101	-0.869443	0.432319
10876		9.580964	-1.268168	4.075597	-0.090891	-0.181330	-0.341162	0.999988	-0.001136	-0.002267	-0.004265	0.130752	0.405952	0.904492	-0.961015	0.276087	0.015011	-0.243625	-0.871194	0.426226
10877		9.664006	-1.411052	4.236679	0.206606	-0.121815	-0.258708	0.999990	0.002583	-0.001523	-0.003234	0.135354	0.399944	0.906490	-0.961212	0.274913	0.022233	-0.240314	-0.874338	0.421642
10878		9.970274	-1.324736	4.110877	0.469001	-0.019055	-0.137287	0.999981	0.005862	-0.000238	-0.001716	0.137409	0.397121	0.907421	-0.963411	0.266422	0.029292	-0.230124	-0.878245	0.419200
10879		10.367287	-1.199372	3.873544	0.672123	0.133861	-0.098196	0.999963	0.008401	0.001673	-0.001227	0.139351	0.398275	0.906619	-0.966821	0.252672	0.037606	-0.214100	-0.881779	0.420270
10880		9.824406	-0.703034	3.917225	0.723049	0.154912	-0.104906	0.999956	0.009038	0.001936	-0.001311	0.141997	0.399976	0.905459	-0.969834	0.239313	0.046380	-0.198137	-0.884731	0.421892
10881		8.989251	-0.350498	4.027196	0.525490	0.012323	-0.147719	0.999977	0.006569	0.000154	-0.001846	0.144553	0.398124	0.905871	-0.971548	0.230686	0.053648	-0.187613	-0.887852	0.420143
10882		9.317793	-0.915770	3.933714	0.339352	-0.087011	-0.186858	0.999988	0.004242	-0.001088	-0.002336	0.147806	0.393885	0.907198	-0.972031	0.227123	0.059758	-0.182507	-0.890657	0.416438
10883		10.416901	-1.361678	4.038115	0.290820	-0.046312	-0.113393	0.999992	0.003635	-0.000579	-0.001417	0.149365	0.391295	0.908063	-0.972760	0.222807	0.063996	-0.177281	-0.892886	0.413916
10884		10.611231	-0.943105	4.297192	0.158219	-0.015704	0.062684	0.999998	0.001978	-0.000196	0.000784	0.146435	0.390179	0.909020	-0.973503	0.219996	0.062393	-0.175636	-0.894070	0.412056
10885		9.889227	-0.687815	4.305168	-0.010711	-0.086258	0.147729	0.999998	-0.000134	-0.001078	0.001847	0.141135	0.388218	0.910696	-0.973842	0.219916	0.057174	-0.178080	-0.894944	0.409100
10886		9.703590	-0.929903	4.186583	0.089074	-0.166577	0.118357	0.999996	0.001113	-0.002082	0.001479	0.136283	0.384441	0.913034	-0.974512	0.217801	0.053753	-0.178196	-0.897088	0.404325
10887		9.780182	-0.817165	4.277812	0.314752	-0.175597	0.113010	0.999989	0.003934	-0.002195	0.001413	0.131623	0.380500	0.915366	-0.976058	0.211048	0.052622	-0.173164	-0.900377	0.399169
10888		9.867197	-0.316718	4.504356	0.254368	-0.115653	0.153347	0.999992	0.003180	-0.001446	0.001917	0.126030	0.378201	0.917104	-0.977608	0.204395	0.050054	-0.168521	-0.902877	0.395492
10889		9.735118	-0.277216	4.565942	-0.016927	-0.049731	0.180440	0.999997	-0.000212	-0.000622	0.002256	0.119890	0.377390	0.918261	-0.977951	0.204196	0.043762	-0.170990	-0.903261	0.393550
10890		9.642835	-0.573343	4.600972	-0.191342	-0.076473	0.213035	0.999993	-0.002392	-0.000956	0.002663	0.113205	0.376409	0.919511	-0.977622	0.207358	0.035475	-0.177315	-0.902950	0.391460
10891		9.873385	-0.763898	4.593233	-0.176756	-0.114634	0.261332	0.999991	-0.002209	-0.001433	0.003267	0.105189	0.374872	0.921090	-0.977329	0.210110	0.026099	-0.183747	-0.902953	0.388474
10892		10.015037	-0.701458	4.487489	-0.074670	-0.085024	0.279486	0.999993	-0.000933	-0.001063	0.003494	0.096740	0.374178	0.922297	-0.977543	0.210023	0.017328	-0.187220	-0.903261	0.386093
10893		9.920785	-0.468294	4.467121	0.020760	-0.051266	0.274233	0.999994	0.000259	-0.000641	0.003428	0.088546	0.374274	0.923081	-0.978149	0.207683	0.009621	-0.188107	-0.903763	0.384485
10894		9.963870	-0.219195	4.507164	-0.006364	-0.060072	0.254190	0.999995	-0.000080	-0.000751	0.003177	0.080876	0.374096	0.923857	-0.978537	0.206061	0.002223	-0.189539	-0.904207	0.382732
10895		9.967807	-0.151373	4.592983	-0.095577	-0.089979	0.214776	0.999995	-0.001195	-0.001125	0.002685	0.074120	0.373084	0.924832	-0.978351	0.206890	-0.005051	-0.193223	-0.904436	0.380341
10896		9.945316	-0.319589	4.536119	-0.117164	-0.084716	0.168244	0.999996	-0.001465	-0.001059	0.002103	0.069021	0.372104	0.925621	-0.977711	0.209645	-0.011373	-0.198284	-0.904206	0.378280
10897		9.979522	-0.457056	4.528805	-0.037787	-0.052410	0.114072	0.999999	-0.000472	-0.000655	0.001426	0.064991	0.371489	0.926160	-0.977510	0.210301	-0.015759	-0.200626	-0.904306	0.376802
10898		10.025532	-0.473607	4.596332	0.053496	-0.019581	0.072344	0.999999	0.000669	-0.000245	0.000904	0.062433	0.371468	0.926344	-0.977696	0.209249	-0.018016	-0.200529	-0.904559	0.376247
10899		9.926875	-0.453173	4.569655	0.081168	-0.002546	0.036063	0.999999	0.001015	-0.000032	0.000451	0.061228	0.371754	0.926310	-0.977851	0.208438	-0.019017	-0.200147	-0.904628	0.376283
10900		9.738386	-0.535555	4.456084	0.111767	0.008817	-0.004025	0.999999	0.001397	0.000110	-0.000050	0.060575	0.371900	0.926294	-0.978403	0.205860	-0.018668	-0.197630	-0.905159	0.376338
10901		9.535989	-0.588438	4.522731	0.124131	-0.024125	-0.035966	0.999999	0.001552	-0.000302	-0.000450	0.060793	0.371224	0.926551	-0.978836	0.203900	-0.017469	-0.195409	-0.905879	0.375763
10902		9.664799	-0.695809	4.534371	0.117164	-0.051719	-0.061586	0.999998	0.001465	-0.000646	-0.000770	0.061352	0.369813	0.927078	-0.979204	0.202255	-0.015878	-0.193378	-0.906825	0.374531
10903		9.948007	-0.847105	4.577605	0.084718	-0.016158	-0.064290	0.999999	0.001059	-0.000202	-0.000804	0.062175	0.369164	0.927282	-0.979460	0.201124	-0.014396	-0.191813	-0.907341	0.374086
10904		9.995182	-1.002929	4.512064	0.089754	0.021875	-0.063239	0.999999	0.001122	0.000273	-0.000790	0.063294	0.369441	0.927096	-0.979708	0.200019	-0.012820	-0.190173	-0.907472	0.374605
10905		9.773298	-1.152686	4.334131	0.165081	0.008282	-0.064362	0.999998	0.002064	0.000104	-0.000805	0.064199	0.369378	0.927059	-0.980344	0.197010	-0.010608	-0.186559	-0.908156	0.374766
10906		9.504057	-1.105476	4.286577	0.288152	-0.051523	-0.061084	0.999993	0.003602	-0.000644	-0.000764	0.064843	0.367970	0.927574	-0.981541	0.191118	-0.007201	-0.179926	-0.909985	0.373570
10907		9.569672	-0.740774	4.479096	0.275119	-0.089355	-0.050747	0.999993	0.003439	-0.001117	-0.000634	0.064898	0.365845	0.928410	-0.982607	0.185645	-0.004467	-0.173989	-0.911972	0.371530
10908		9.677201	-0.855559	4.530059	0.126483	-0.091118	-0.040853	0.999998	0.001581	-0.001139	-0.000511	0.064701	0.363757	0.929244	-0.983021	0.183463	-0.003372	-0.171708	-0.913248	0.369451
10909		9.721233	-1.271546	4.285803	0.239948	-0.115989	-0.024681	0.999994	0.002999	-0.001450	-0.000309	0.064069	0.361224	0.930275	-0.983921	0.178596	-0.001585	-0.166716	-0.915216	0.366858
10910		9.752780	-0.885047	4.348456	0.429148	-0.124958	-0.011339	0.999984	0.005364	-0.001562	-0.000142	0.063311	0.358743	0.931287	-0.985479	0.169788	0.001591	-0.157551	-0.917864	0.364284
10911		9.936208	-0.338674	4.573433	0.359280	-0.105215	-0.024283	0.999989	0.004491	-0.001315	-0.000304	0.062562	0.356307	0.932272	-0.986878	0.161402	0.004540	-0.148853	-0.920323	0.361730
10912		9.992668	-0.124728	4.639231	0.060333	-0.065433	-0.042838	0.999999	0.000754	-0.000818	-0.000535	0.062577	0.354842	0.932830	-0.987045	0.160360	0.005214	-0.147738	-0.921071	0.360280
10913		9.985167	-0.422169	4.406121	-0.134957	-0.016844	-0.066905	0.999998	-0.001687	-0.000211	-0.000836	0.063189	0.354339	0.932980	-0.986478	0.163830	0.004591	-0.151223	-0.920654	0.359899
10914		9.906529	-0.763205	4.216538	-0.041243	0.008170	-0.113390	0.999999	-0.000516	0.000102	-0.001417	0.065400	0.354426	0.932794	-0.986072	0.166209	0.005983	-0.152918	-0.920194	0.360360
10915		9.716203	-0.644716	4.168341	0.133496	0.013744	-0.149863	0.999997	0.001669	0.000172	-0.001873	0.068482	0.354330	0.932610	-0.986325	0.164513	0.009922	-0.149911	-0.920536	0.360750
10916		9.691240	-0.412967	4.253923	0.157359	0.024925	-0.174133	0.999996	0.001967	0.000312	-0.002177	0.072432	0.354257	0.932339	-0.986599	0.162481	0.014910	-0.146206	-0.920925	0.361278
10917		9.868761	-0.414889	4.335605	0.049403	0.066877	-0.181432	0.999997	0.000618	0.000836	-0.002268	0.076601	0.355359	0.931586	-0.986425	0.163124	0.018885	-0.145252	-0.920386	0.363031
10918		9.681725	-0.587922	4.197066	-0.005329	0.092040	-0.171763	0.999997	-0.000067	0.001150	-0.002147	0.080515	0.356979	0.930636	-0.986091	0.164728	0.022125	-0.145404	-0.919473	0.365277
10919		9.459969	-0.635906	4.011851	0.083190	0.073093	-0.157642	0.999997	0.001040	0.000914	-0.001971	0.084122	0.358339	0.929794	-0.986046	0.164454	0.025831	-0.143652	-0.918993	0.367173
10920		9.450672	-0.457441	4.047333	0.111845	0.047516	-0.152825	0.999997	0.001398	0.000594	-0.001910	0.087448	0.359146	0.929175	-0.986108	0.163443	0.029632	-0.141225	-0.918858	0.368449
10921		9.832467	-0.455146	4.222995	0.005993	0.017731	-0.138446	0.999998	0.000075	0.000222	-0.001731	0.090451	0.359298	0.928829	-0.985811	0.164728	0.032278	-0.141406	-0.918569	0.369100
10922		10.110152	-0.676442	4.136066	-0.097899	0.023958	-0.083517	0.999999	-0.001224	0.000299	-0.001044	0.091763	0.359877	0.928476	-0.985315	0.167643	0.032402	-0.143992	-0.917815	0.369976
10923		10.004801	-0.758961	4.002167	-0.047486	0.037087	-0.026335	1.000000	-0.000594	0.000464	-0.000329	0.091589	0.360782	0.928142	-0.985182	0.168556	0.031698	-0.145008	-0.917292	0.370874
10924		9.816504	-0.408407	4.071188	0.010542	0.027453	-0.003968	1.000000	0.000132	0.000343	-0.000050	0.090770	0.361689	0.927870	-0.985312	0.167939	0.030925	-0.144640	-0.917048	0.371620
10925		9.711085	-0.188885	4.180617	-0.053481	0.018475	-0.018131	1.000000	-0.000669	0.000231	-0.000227	0.090566	0.362129	0.927718	-0.985143	0.169062	0.030180	-0.145912	-0.916668	0.372060
10926		9.828432	-0.536931	4.079692	-0.063741	0.014354	-0.033097	1.000000	-0.000797	0.000179	-0.000414	0.090936	0.362528	0.927526	-0.984835	0.170927	0.029747	-0.147755	-0.916164	0.372574
10927		9.985017	-0.555868	4.084004	-0.015754	0.018004	-0.014409	1.000000	-0.000197	0.000225	-0.000180	0.090605	0.363030	0.927362	-0.984801	0.171215	0.029192	-0.148180	-0.915912	0.373026
10928		9.791914	-0.268628	4.144761	-0.113293	0.020616	0.024869	0.999999	-0.001416	0.000258	0.000311	0.089491	0.363839	0.927153	-0.984454	0.173568	0.026910	-0.151133	-0.915148	0.373715
10929		9.550971	-0.235436	4.153168	-0.262332	0.011186	0.038821	0.999994	-0.003279	0.000140	0.000485	0.087743	0.364358	0.927116	-0.983619	0.178809	0.022818	-0.157463	-0.913931	0.374079
10930		9.642725	-0.384823	4.182027	-0.295493	-0.001347	0.032951	0.999993	-0.003694	-0.000017	0.000412	0.086183	0.364674	0.927138	-0.982565	0.184989	0.018573	-0.164737	-0.912574	0.374259
10931		9.875536	-0.526808	4.218391	-0.222767	0.001707	0.028517	0.999996	-0.002785	0.000021	0.000356	0.084823	0.365060	0.927112	-0.981732	0.189666	0.015138	-0.170315	-0.911459	0.374480
10932		9.913792	-0.584766	4.129806	-0.097951	0.030718	0.015947	0.999999	-0.001224	0.000384	0.000199	0.083896	0.366042	0.926809	-0.981380	0.191626	0.013154	-0.172786	-0.910655	0.375303
10933		9.742926	-0.548574	3.993676	0.004061	0.064727	-0.013204	1.000000	0.000051	0.000809	-0.000165	0.083786	0.367634	0.926188	-0.981432	0.191382	0.012817	-0.172544	-0.910065	0.376843
10934		9.651744	-0.329710	4.080770	-0.014774	0.048959	-0.017682	1.000000	-0.000185	0.000612	-0.000221	0.083912	0.368787	0.925719	-0.981355	0.191794	0.012548	-0.172919	-0.909511	0.378005
10935		9.750064	-0.359316	4.184348	-0.152383	0.008887	-0.013732	0.999998	-0.001905	0.000111	-0.000172	0.083529	0.369090	0.925633	-0.980731	0.195068	0.010719	-0.176605	-0.908692	0.378272
10936		9.959807	-0.506369	4.177356	-0.192786	0.001513	-0.009750	0.999997	-0.002410	0.000019	-0.000122	0.083064	0.369302	0.925590	-0.979910	0.199260	0.008436	-0.181318	-0.907696	0.378434
10937		10.222291	-0.484038	4.285913	-0.179571	0.023521	-0.018004	0.999997	-0.002245	0.000294	-0.000225	0.082658	0.369753	0.925446	-0.979167	0.202956	0.006367	-0.185471	-0.906693	0.378825
10938		10.189141	-0.604767	4.247115	-0.090277	0.030244	-0.053995	0.999999	-0.001128	0.000378	-0.000675	0.083560	0.370160	0.925202	-0.978674	0.205324	0.006242	-0.187656	-0.905993	0.379422
10939		9.879880	-0.618183	4.150071	0.114291	0.021244	-0.121647	0.999998	0.001429	0.000266	-0.001521	0.085894	0.370076	0.925022	-0.979028	0.203505	0.009492	-0.184734	-0.906438	0.379795
10940		9.593449	-0.688762	4.133663	0.300678	0.002276	-0.228833	0.999989	0.003758	0.000028	-0.002860	0.091007	0.369074	0.924934	-0.979908	0.198713	0.017124	-0.177476	-0.907908	0.379743
10941		9.668446	-0.829839	4.227650	0.378457	-0.009898	-0.271250	0.999983	0.004731	-0.000124	-0.003391	0.097159	0.367515	0.924929	-0.980945	0.192458	0.026572	-0.168245	-0.909886	0.379211
10942		9.637108	-0.932153	4.226064	0.336028	0.017975	-0.236325	0.999987	0.004200	0.000225	-0.002954	0.102509	0.366839	0.924619	-0.981779	0.186824	0.034724	-0.160003	-0.911332	0.379306
10943		9.536111	-1.072754	4.071614	0.303599	0.033178	-0.154513	0.999991	0.003795	0.000415	-0.001931	0.105906	0.366995	0.924175	-0.982610	0.181174	0.040658	-0.152515	-0.912409	0.379800
10944		9.740768	-0.974439	3.923335	0.304872	0.032115	-0.064112	0.999992	0.003811	0.000401	-0.000801	0.106975	0.367645	0.923793	-0.983640	0.174581	0.044427	-0.144943	-0.913433	0.380306
10945		9.944342	-0.730427	3.920810	0.238983	0.025466	0.006385	0.999995	0.002987	0.000318	0.000080	0.106042	0.368449	0.923580	-0.984626	0.168563	0.045805	-0.138805	-0.914238	0.380659
10946		9.906669	-0.408518	3.861027	0.118937	0.019660	0.059056	0.999999	0.001487	0.000246	0.000738	0.103782	0.369215	0.923531	-0.985293	0.164897	0.044799	-0.135747	-0.914598	0.380899
10947		9.675084	-0.219330	3.862852	-0.005734	-0.024605	0.066926	1.000000	-0.000072	-0.000308	0.000837	0.101169	0.369162	0.923842	-0.985573	0.163836	0.042461	-0.135684	-0.914810	0.380411
10948		9.692926	-0.173968	3.995643	-0.091845	-0.105433	0.032023	0.999998	-0.001148	-0.001318	0.000400	0.099219	0.366909	0.924950	-0.985462	0.165063	0.040233	-0.137913	-0.915496	0.377952
10949		9.896674	-0.195252	4.073334	-0.138260	-0.117437	-0.004435	0.999997	-0.001728	-0.001468	-0.000055	0.098154	0.364305	0.926093	-0.985084	0.167728	0.038426	-0.141333	-0.916051	0.375334
10950		9.896673	-0.252715	4.112432	-0.183122	-0.066720	-0.014540	0.999997	-0.002289	-0.000834	-0.000182	0.097533	0.362573	0.926838	-0.984502	0.171531	0.036499	-0.145748	-0.916034	0.373684
10951		9.861101	-0.211477	4.134871	-0.230869	-0.053414	0.009109	0.999996	-0.002886	-0.000668	0.000114	0.096310	0.361500	0.927385	-0.983789	0.176173	0.033495	-0.151271	-0.915577	0.372607
10952		9.955724	-0.163444	4.203154	-0.288727	-0.075301	0.054198	0.999993	-0.003609	-0.000941	0.000677	0.093833	0.360017	0.928215	-0.982929	0.181702	0.028889	-0.158258	-0.915080	0.370921
10953		9.958919	-0.082367	4.187772	-0.292408	-0.087788	0.088543	0.999992	-0.003655	-0.001097	0.001107	0.090752	0.358454	0.929126	-0.982031	0.187226	0.023688	-0.165466	-0.914580	0.369005
10954		9.757566	0.087094	4.208597	-0.267680	-0.096555	0.082442	0.999993	-0.003346	-0.001207	0.001031	0.087538	0.356688	0.930113	-0.981202	0.192079	0.018686	-0.171990	-0.914265	0.366797
10955		9.762922	0.100009	4.225194	-0.254782	-0.094865	0.049368	0.999994	-0.003185	-0.001186	0.000617	0.085203	0.354837	0.931038	-0.980302	0.196958	0.014646	-0.178178	-0.913946	0.364629
10956		9.883119	0.011259	4.219677	-0.216732	-0.063448	0.013901	0.999996	-0.002709	-0.000793	0.000174	0.083910	0.353692	0.931590	-0.979455	0.201318	0.011789	-0.183376	-0.913440	0.363318
10957		9.904804	-0.057271	4.175759	-0.165129	-0.034169	-0.005085	0.999998	-0.002064	-0.000427	-0.000064	0.083248	0.352994	0.931915	-0.978775	0.204701	0.009896	-0.187270	-0.912958	0.362542
10958		9.981464	-0.090961	4.109344	-0.116299	-0.017945	-0.022722	0.999999	-0.001454	-0.000224	-0.000284	0.083013	0.352673	0.932057	-0.978286	0.207074	0.008777	-0.189910	-0.912547	0.362205
10959		9.986263	-0.066637	4.039834	-0.075437	-0.007826	-0.042487	0.999999	-0.000943	-0.000098	-0.000531	0.083260	0.352299	0.932176	-0.977958	0.208630	0.008501	-0.191485	-0.912337	0.361904
10960		9.888159	-0.099794	4.035947	-0.069511	-0.020085	-0.063282	0.999999	-0.000869	-0.000251	-0.000791	0.083963	0.351604	0.932376	-0.977621	0.210193	0.008773	-0.192894	-0.912246	0.361384
10961		9.899913	-0.219712	4.003331	-0.061469	-0.024812	-0.075502	0.999999	-0.000768	-0.000310	-0.000944	0.085044	0.350724	0.932609	-0.977274	0.211766	0.009479	-0.194171	-0.912221	0.360763
10962		9.805504	-0.297675	4.071507	-0.050617	-0.030094	-0.091359	0.999999	-0.000633	-0.000376	-0.001142	0.086611	0.349657	0.932866	-0.976927	0.213305	0.010750	-0.195226	-0.912272	0.360064
10963		9.854788	-0.535047	3.993266	-0.005825	-0.027306	-0.102280	0.999999	-0.000073	-0.000341	-0.001279	0.088197	0.348769	0.933050	-0.976805	0.213770	0.012427	-0.195124	-0.912504	0.359533
10964		9.841331	-0.588175	4.003398	0.055150	-0.006719	-0.086206	0.999999	0.000689	-0.000084	-0.001078	0.089721	0.348204	0.933115	-0.976987	0.212802	0.014530	-0.193509	-0.912946	0.359283
10965		9.790025	-0.497461	4.006705	0.040340	0.001713	-0.057284	1.000000	0.000504	0.000021	-0.000716	0.090495	0.348094	0.933082	-0.977171	0.211873	0.015731	-0.192219	-0.913204	0.359320
10966		9.839422	-0.485514	3.985339	0.000947	-0.000959	-0.038192	1.000000	0.000012	-0.000012	-0.000477	0.090734	0.348052	0.933074	-0.977214	0.211646	0.016079	-0.191885	-0.913272	0.359325
10967		9.794041	-0.537715	3.976196	-0.021528	-0.011838	-0.040020	1.000000	-0.000269	-0.000148	-0.000500	0.091051	0.347689	0.933178	-0.977129	0.212021	0.016344	-0.192170	-0.913323	0.359042
10968		9.772169	-0.591711	4.013067	-0.016773	-0.010237	-0.030089	1.000000	-0.000210	-0.000128	-0.000376	0.091142	0.347269	0.933326	-0.977090	0.212187	0.016466	-0.192321	-0.913444	0.358653
10969		9.751513	-0.494732	4.055117	-0.050099	-0.006858	-0.007419	1.000000	-0.000626	-0.000086	-0.000093	0.090715	0.347197	0.933394	-0.976941	0.212930	0.015743	-0.193282	-0.913299	0.358507
10970		9.764538	-0.430941	4.051799	-0.097375	0.006623	0.012353	0.999999	-0.001217	0.000083	0.000154	0.089820	0.347445	0.933389	-0.976608	0.214565	0.014110	-0.195371	-0.912822	0.358589
10971		9.757470	-0.421830	3.992622	-0.099640	0.024485	0.019410	0.999999	-0.001245	0.000306	0.000243	0.088755	0.348275	0.933181	-0.976290	0.216124	0.012195	-0.197436	-0.912138	0.359199
10972		9.744406	-0.242680	3.991664	-0.118754	0.028099	0.024701	0.999999	-0.001484	0.000351	0.000309	0.087632	0.349051	0.932997	-0.975870	0.218119	0.010057	-0.199994	-0.911366	0.359743
10973		9.786117	-0.081973	4.109771	-0.188127	-0.000272	0.012990	0.999997	-0.002352	-0.000003	0.000162	0.086751	0.349019	0.933092	-0.975045	0.221875	0.007660	-0.204356	-0.910471	0.359557
10974		9.839937	-0.106881	4.148032	-0.247960	0.004327	-0.002583	0.999995	-0.003099	0.000054	-0.000032	0.086255	0.349085	0.933113	-0.973865	0.227070	0.005074	-0.210111	-0.909164	0.359548
10975		9.823264	-0.192200	4.158031	-0.223122	0.035419	-0.019359	0.999996	-0.002789	0.000443	-0.000242	0.086443	0.349761	0.932842	-0.972736	0.231892	0.003194	-0.215201	-0.907686	0.360271
10976		9.868499	-0.212658	4.117581	-0.156359	0.053106	-0.029974	0.999998	-0.001954	0.000664	-0.000375	0.086848	0.350953	0.932357	-0.971957	0.235149	0.002022	-0.218533	-0.906386	0.361534
10977		9.933299	-0.167675	4.105862	-0.106204	0.055054	-0.032293	0.999999	-0.001328	0.000688	-0.000404	0.087423	0.352002	0.931908	-0.971406	0.237420	0.001450	-0.220743	-0.905387	0.362693
10978		9.937684	-0.126297	4.054920	-0.058611	0.051668	-0.042332	0.999999	-0.000733	0.000646	-0.000529	0.088069	0.353134	0.931418	-0.971135	0.238526	0.001391	-0.221677	-0.904656	0.363947
10979		9.874434	-0.161733	3.971042	-0.000568	0.047132	-0.061100	1.000000	-0.000007	0.000589	-0.000764	0.089339	0.354010	0.930965	-0.971132	0.238531	0.002490	-0.221182	-0.904312	0.365100
10980		9.825804	-0.072369	3.982122	0.020149	0.031199	-0.074993	0.999999	0.000252	0.000390	-0.000937	0.090988	0.354405	0.930655	-0.971197	0.238240	0.004227	-0.220221	-0.904234	0.365874
10981		9.864695	-0.083995	3.996802	-0.032397	0.028075	-0.088994	0.999999	-0.000405	0.000351	-0.001112	0.092790	0.354439	0.930464	-0.970915	0.239357	0.005647	-0.220712	-0.903926	0.366340
10982		9.871430	-0.249944	3.987008	-0.065397	0.037225	-0.100605	0.999999	-0.000817	0.000465	-0.001258	0.094945	0.354713	0.930142	-0.970434	0.241262	0.007052	-0.221906	-0.903311	0.367133
10983		9.877622	-0.389014	4.029478	-0.045243	0.039514	-0.096717	0.999999	-0.000566	0.000494	-0.001209	0.097071	0.355162	0.929751	-0.970079	0.242638	0.008594	-0.222541	-0.902766	0.368088
10984		9.868062	-0.533765	3.927347	0.008523	0.040249	-0.084701	0.999999	0.000107	0.000503	-0.001059	0.098789	0.355613	0.929398	-0.970031	0.242765	0.010219	-0.221991	-0.902554	0.368939
10985		9.767553	-0.490452	3.925117	0.067228	0.029659	-0.061230	0.999999	0.000840	0.000371	-0.000765	0.099863	0.355870	0.929185	-0.970352	0.241407	0.011830	-0.220102	-0.902817	0.369426
10986		9.722593	-0.287324	4.010391	0.025476	0.018175	-0.034573	1.000000	0.000318	0.000227	-0.000432	0.100158	0.356155	0.929044	-0.970525	0.240684	0.012362	-0.219203	-0.902898	0.369763
10987		9.725957	-0.263772	4.020118	-0.078075	0.011577	-0.013268	0.999999	-0.000976	0.000145	-0.000166	0.100045	0.356302	0.928999	-0.970161	0.242186	0.011592	-0.220860	-0.902438	0.369899
10988		9.739918	-0.366812	4.031004	-0.103333	0.013700	0.003568	0.999999	-0.001292	0.000171	0.000045	0.099466	0.356833	0.928858	-0.969742	0.243921	0.010139	-0.222950	-0.901761	0.370298
10989		9.783226	-0.358301	3.999903	-0.057229	0.022438	0.018113	1.000000	-0.000715	0.000280	0.000226	0.098733	0.357333	0.928744	-0.969566	0.244669	0.008936	-0.224042	-0.901360	0.370614
10990		9.765994	-0.209388	3.988560	-0.022257	0.022350	0.028865	1.000000	-0.000278	0.000279	0.000361	0.097610	0.358158	0.928545	-0.969640	0.244418	0.007653	-0.224212	-0.901101	0.371142
10991		9.811131	-0.078525	3.988814	-0.029459	0.011525	0.028165	1.000000	-0.000368	0.000144	0.000352	0.096529	0.358644	0.928470	-0.969664	0.244358	0.006422	-0.224576	-0.900924	0.371352
10992		9.844674	-0.102296	3.972600	-0.031351	0.009575	0.009120	1.000000	-0.000392	0.000120	0.000114	0.095835	0.358978	0.928413	-0.969620	0.244553	0.005531	-0.225061	-0.900738	0.371509
10993		9.827456	-0.068229	4.002932	-0.013523	0.001622	-0.004343	1.000000	-0.000169	0.000020	-0.000054	0.095490	0.359028	0.928429	-0.969650	0.244440	0.005204	-0.225077	-0.900748	0.371474
10994		9.770434	-0.051418	4.049710	-0.028990	-0.006543	-0.011753	1.000000	-0.000362	-0.000082	-0.000147	0.095210	0.358903	0.928506	-0.969579	0.244733	0.004823	-0.225505	-0.900719	0.371285
10995		9.822339	-0.082163	4.023230	-0.025358	-0.004391	-0.021333	1.000000	-0.000317	-0.000055	-0.000267	0.095063	0.358834	0.928548	-0.969508	0.245018	0.004570	-0.225871	-0.900669	0.371184
10996		9.865130	-0.069253	4.023547	-0.018529	0.005054	-0.029978	1.000000	-0.000232	0.000063	-0.000375	0.095271	0.359017	0.928456	-0.969482	0.245117	0.004699	-0.225893	-0.900569	0.371413
10997		9.885740	-0.039056	4.048368	-0.035862	0.010952	-0.031815	1.000000	-0.000448	0.000137	-0.000398	0.095728	0.359024	0.928406	-0.969300	0.245831	0.004879	-0.226479	-0.900371	0.371535
10998		9.857512	-0.011047	4.093298	-0.066101	-0.002682	-0.033377	1.000000	-0.000826	-0.000034	-0.000417	0.096035	0.358877	0.928431	-0.968976	0.247109	0.004711	-0.227733	-0.900081	0.371474
10999		9.766868	0.002293	4.133634	-0.081100	-0.023168	-0.041675	0.999999	-0.001014	-0.000290	-0.000521	0.096528	0.358089	0.928684	-0.968516	0.248909	0.004692	-0.229477	-0.899898	0.370841
11000		9.755663	-0.078094	4.109743	-0.056538	-0.017508	-0.052599	1.000000	-0.000707	-0.000219	-0.000657	0.097314	0.357218	0.928938	-0.968132	0.250389	0.005134	-0.230762	-0.899834	0.370200
11001		9.846390	-0.135270	4.077873	-0.017094	0.009522	-0.056750	1.000000	-0.000214	0.000119	-0.000709	0.098316	0.357124	0.928868	-0.968014	0.250823	0.006025	-0.230830	-0.899750	0.370361
11002		9.873145	-0.069147	4.076603	-0.028793	0.022533	-0.041189	1.000000	-0.000360	0.000282	-0.000515	0.099032	0.357380	0.928694	-0.967852	0.251438	0.006449	-0.231204	-0.899477	0.370791
11003		9.864981	-0.098181	4.057101	-0.050186	0.017719	-0.022854	1.000000	-0.000627	0.000221	-0.000286	0.099198	0.357678	0.928561	-0.967608	0.252384	0.006152	-0.232154	-0.899093	0.371128
11004		9.837618	-0.100031	4.001007	-0.029129	0.016440	-0.016367	1.000000	-0.000364	0.000205	-0.000205	0.099160	0.358069	0.928415	-0.967531	0.252685	0.005883	-0.232489	-0.898853	0.371499
11005		9.817463	-0.010414	4.008600	-0.021452	0.011840	-0.022165	1.000000	-0.000268	0.000148	-0.000277	0.099342	0.358367	0.928280	-0.967507	0.252774	0.005955	-0.232511	-0.898709	0.371834
11006		9.871168	-0.013109	4.021531	-0.036735	0.010627	-0.029602	1.000000	-0.000459	0.000133	-0.000370	0.099679	0.358524	0.928184	-0.967344	0.253395	0.006007	-0.233043	-0.898472	0.372074
11007		9.849568	-0.057914	4.001970	-0.038975	0.012972	-0.036510	1.000000	-0.000487	0.000162	-0.000456	0.100253	0.358608	0.928089	-0.967131	0.254201	0.006249	-0.233680	-0.898211	0.372305
11008		9.812034	-0.029339	4.028269	-0.049870	0.005498	-0.040333	1.000000	-0.000623	0.000069	-0.000504	0.100958	0.358390	0.928097	-0.966823	0.255364	0.006561	-0.234651	-0.897968	0.372280
11009		9.781209	-0.049703	4.038307	-0.061220	0.001498	-0.039975	1.000000	-0.000765	0.000019	-0.000500	0.101526	0.358235	0.928095	-0.966486	0.256634	0.006667	-0.235793	-0.897667	0.372284
11010		9.796421	-0.098076	4.067135	-0.062831	-0.000590	-0.029704	1.000000	-0.000785	-0.000007	-0.000371	0.101826	0.357960	0.928168	-0.966102	0.258078	0.006457	-0.237229	-0.897363	0.372105
11011		9.794674	-0.091395	4.072118	-0.064861	-0.000028	-0.012118	1.000000	-0.000811	-0.000000	-0.000151	0.101728	0.357853	0.928220	-0.965776	0.259312	0.005872	-0.238597	-0.897050	0.371985
11012		9.819791	-0.088454	4.083843	-0.061858	-0.008530	0.009520	1.000000	-0.000773	-0.000107	0.000119	0.101001	0.357801	0.928320	-0.965539	0.260213	0.004757	-0.239859	-0.896810	0.371753
11013		9.799958	-0.005512	4.115884	-0.059640	-0.006142	0.012526	1.000000	-0.000745	-0.000077	0.000157	0.100175	0.357889	0.928375	-0.965347	0.260945	0.003570	-0.240978	-0.896562	0.371628
11014		9.853322	-0.011989	4.130427	-0.056265	-0.000564	0.007892	1.000000	-0.000703	-0.000007	0.000099	0.099600	0.358038	0.928380	-0.965166	0.261625	0.002649	-0.241939	-0.896304	0.371624
11015		9.911301	-0.056875	4.083971	-0.035438	0.007172	0.001738	1.000000	-0.000443	0.000090	0.000022	0.099157	0.358214	0.928359	-0.965040	0.262094	0.001944	-0.242621	-0.896097	0.371679
11016		9.876934	-0.069012	4.053676	-0.006177	0.015375	0.001282	1.000000	-0.000077	0.000192	0.000016	0.098795	0.358463	0.928302	-0.965045	0.262080	0.001503	-0.242750	-0.896002	0.371825
11017		9.808619	0.011523	4.054228	-0.008538	0.010673	0.001529	1.000000	-0.000107	0.000133	0.000019	0.098492	0.358628	0.928270	-0.965068	0.261996	0.001177	-0.242781	-0.895960	0.371905
11018		9.782620	-0.018923	4.072260	-0.022389	0.002855	0.002179	1.000000	-0.000280	0.000036	0.000027	0.098043	0.358691	0.928293	-0.965019	0.262180	0.000616	-0.243159	-0.895881	0.371848
11019		9.789514	-0.053005	4.052159	-0.012184	0.005289	-0.000024	1.000000	-0.000152	0.000066	-0.000000	0.097700	0.358882	0.928256	-0.965075	0.261973	0.000291	-0.243074	-0.895865	0.371942
11020		9.813330	-0.002425	4.037211	-0.007070	0.009620	0.006415	1.000000	-0.000088	0.000120	0.000080	0.097261	0.359149	0.928199	-0.965151	0.261693	-0.000124	-0.242948	-0.895840	0.372085
11021		9.872070	-0.016138	4.057857	-0.023211	0.015233	0.012935	1.000000	-0.000290	0.000190	0.000162	0.096653	0.359639	0.928072	-0.965156	0.261672	-0.000886	-0.243170	-0.895649	0.372399
11022		9.859894	-0.027194	3.975686	-0.020223	0.010782	0.012357	1.000000	-0.000253	0.000135	0.000154	0.096027	0.359924	0.928027	-0.965126	0.261782	-0.001663	-0.243539	-0.895503	0.372510
11023		9.803729	0.021110	3.989081	0.003509	-0.004795	-0.002408	1.000000	0.000044	-0.000060	-0.000030	0.095752	0.359758	0.928119	-0.965224	0.261418	-0.001751	-0.243257	-0.895675	0.372278
11024		9.793979	0.064082	4.117363	-0.012698	-0.022000	-0.011866	1.000000	-0.000159	-0.000275	-0.000148	0.095407	0.359398	0.928294	-0.965274	0.261232	-0.001930	-0.243194	-0.895874	0.371841
11025		9.830422	-0.053506	4.107144	-0.024448	-0.007504	-0.012795	1.000000	-0.000306	-0.000094	-0.000160	0.095251	0.359140	0.928410	-0.965168	0.261622	-0.002182	-0.243676	-0.895864	0.371550
11026		9.802592	-0.088870	4.083177	0.008431	0.018772	-0.008418	1.000000	0.000105	0.000235	-0.000105	0.095188	0.359496	0.928279	-0.965280	0.261210	-0.002176	-0.243258	-0.895842	0.371878
11027		9.821307	-0.015013	4.057750	0.017765	0.016165	0.003994	1.000000	0.000222	0.000202	0.000050	0.094805	0.359927	0.928151	-0.965495	0.260410	-0.002364	-0.242551	-0.895901	0.372196
11028		9.867085	0.077381	4.061189	-0.013574	0.001461	0.004542	1.000000	-0.000170	0.000018	0.000057	0.094364	0.359928	0.928196	-0.965484	0.260447	-0.002839	-0.242767	-0.895890	0.372082
11029		9.864946	0.064051	4.094937	-0.032029	-0.008614	-0.008599	1.000000	-0.000400	-0.000108	-0.000107	0.094171	0.359555	0.928360	-0.965294	0.261146	-0.003224	-0.243596	-0.895837	0.371669
11030		9.843197	0.044554	4.098648	-0.019264	-0.004697	-0.021445	1.000000	-0.000241	-0.000059	-0.000268	0.094296	0.359409	0.928404	-0.965262	0.261266	-0.003103	-0.243675	-0.895860	0.371560
11031		9.808930	-0.017969	4.101123	0.011378	0.007424	-0.033579	1.000000	0.000142	0.000093	-0.000420	0.094767	0.359342	0.928382	-0.965317	0.261068	-0.002512	-0.243273	-0.895945	0.371620
11032		9.820156	-0.043186	4.090601	0.027986	0.018890	-0.035421	1.000000	0.000350	0.000236	-0.000443	0.095422	0.359542	0.928237	-0.965495	0.260417	-0.001618	-0.242310	-0.896054	0.371986
11033		9.882346	-0.040277	4.073656	0.018235	0.023924	-0.019109	1.000000	0.000228	0.000299	-0.000239	0.095723	0.359960	0.928044	-0.965660	0.259806	-0.001168	-0.241531	-0.896063	0.372469
11034		9.833690	-0.002731	4.012147	-0.001439	0.018460	-0.008714	1.000000	-0.000018	0.000231	-0.000109	0.095738	0.360362	0.927886	-0.965756	0.259450	-0.001117	-0.241143	-0.896005	0.372861
11035		9.805234	0.018404	4.031406	-0.011917	0.012276	-0.011958	1.000000	-0.000149	0.000153	-0.000149	0.095830	0.360509	0.927820	-0.965730	0.259547	-0.001103	-0.241210	-0.895918	0.373027
11036		9.842751	-0.032435	4.057101	-0.002481	0.006613	-0.020978	1.000000	-0.000031	0.000083	-0.000262	0.096086	0.360412	0.927831	-0.965707	0.259633	-0.000845	-0.241200	-0.895932	0.373000
11037		9.860420	-0.029594	4.070246	0.012419	0.008203	-0.023697	1.000000	0.000155	0.000103	-0.000296	0.096294	0.360519	0.927768	-0.965825	0.259196	-0.000477	-0.240646	-0.896015	0.373157
11038		9.808838	0.003404	4.069563	0.004502	0.012885	-0.025638	1.000000	0.000056	0.000161	-0.000320	0.096679	0.360626	0.927686	-0.965873	0.259018	-0.000031	-0.240298	-0.896024	0.373360
11039		9.793884	-0.067966	4.056647	-0.010188	0.007947	-0.019082	1.000000	-0.000127	0.000099	-0.000239	0.096927	0.360624	0.927661	-0.965844	0.259125	0.000183	-0.240314	-0.895994	0.373423
11040		9.821436	-0.072156	4.061180	-0.000712	0.008445	-0.007521	1.000000	-0.000009	0.000106	-0.000094	0.096902	0.360748	0.927616	-0.965921	0.258837	0.000242	-0.240014	-0.896027	0.373536
11041		9.816593	-0.015399	4.068576	0.003562	0.014919	0.000882	1.000000	0.000045	0.000186	0.000011	0.096707	0.361029	0.927527	-0.966019	0.258470	0.000114	-0.239696	-0.896020	0.373757
11042		9.823217	0.027515	4.062835	-0.013044	0.016061	0.004380	1.000000	-0.000163	0.000201	0.000055	0.096355	0.361374	0.927429	-0.966004	0.258528	-0.000373	-0.239901	-0.895864	0.373999
11043		9.818176	0.024573	4.029954	-0.019928	0.012141	0.000327	1.000000	-0.000249	0.000152	0.000004	0.096170	0.361577	0.927369	-0.965956	0.258704	-0.000696	-0.240165	-0.895731	0.374147
11044		9.813344	-0.000210	4.048723	-0.008217	0.005691	-0.004174	1.000000	-0.000103	0.000071	-0.000052	0.096009	0.361637	0.927362	-0.965967	0.258664	-0.000864	-0.240188	-0.895719	0.374163
11045		9.826280	-0.019288	4.031399	-0.001996	0.010895	-0.005336	1.000000	-0.000025	0.000136	-0.000067	0.095831	0.361929	0.927267	-0.966062	0.258308	-0.000982	-0.239876	-0.895703	0.374400
11046		9.881023	-0.009638	4.038849	-0.008684	0.010676	0.004764	1.000000	-0.000109	0.000133	0.000060	0.095490	0.362176	0.927206	-0.966105	0.258146	-0.001339	-0.239840	-0.895650	0.374551
11047		9.766565	0.053904	4.025418	-0.023118	0.012636	0.013612	1.000000	-0.000289	0.000158	0.000170	0.095034	0.362412	0.927160	-0.966044	0.258371	-0.001974	-0.240267	-0.895490	0.374660
11048		9.783826	0.070111	4.037097	-0.020029	-0.007588	0.005739	1.000000	-0.000250	-0.000095	0.000072	0.094481	0.362346	0.927243	-0.966040	0.258379	-0.002534	-0.240498	-0.895514	0.374453
11049		9.858461	0.072861	4.126277	-0.011552	-0.018819	-0.009212	1.000000	-0.000144	-0.000235	-0.000115	0.094298	0.361838	0.927460	-0.966028	0.258425	-0.002602	-0.240621	-0.895706	0.373914
11050		9.848171	0.008319	4.098115	0.011932	0.006214	-0.023454	1.000000	0.000149	0.000078	-0.000293	0.094637	0.361784	0.927446	-0.966119	0.258089	-0.002094	-0.240122	-0.895825	0.373951
11051		9.810208	0.003625	4.056316	0.046518	0.028248	-0.027676	1.000000	0.000581	0.000353	-0.000346	0.095123	0.362365	0.927169	-0.966483	0.256726	-0.001179	-0.238456	-0.895982	0.374641
11052		9.828031	0.045611	4.038162	0.028853	0.015844	-0.019861	1.000000	0.000361	0.000198	-0.000248	0.095387	0.362531	0.927077	-0.966656	0.256077	-0.000679	-0.237649	-0.896100	0.374869
11053		9.881258	0.013120	4.009481	0.005180	0.001280	-0.013349	1.000000	0.000065	0.000016	-0.000167	0.095385	0.362495	0.927092	-0.966739	0.255765	-0.000541	-0.237314	-0.896204	0.374834
11054		9.839635	0.023843	4.002981	0.015051	-0.000759	-0.014611	1.000000	0.000188	-0.000009	-0.000183	0.095425	0.362361	0.927140	-0.966856	0.255322	-0.000277	-0.236819	-0.896385	0.374715
11055		9.813096	0.085207	4.035487	0.008107	-0.003015	-0.024937	1.000000	0.000101	-0.000038	-0.000312	0.095684	0.362187	0.927181	-0.966958	0.254934	0.000203	-0.236297	-0.896565	0.374613
11056		9.808091	0.016091	4.039551	-0.002930	-0.001726	-0.028675	1.000000	-0.000037	-0.000022	-0.000358	0.096041	0.361976	0.927227	-0.966953	0.254953	0.000626	-0.236173	-0.896645	0.374500
11057		9.822103	-0.075687	4.032043	0.018516	-0.000685	-0.026394	1.000000	0.000231	-0.000009	-0.000330	0.096469	0.361785	0.927257	-0.967113	0.254344	0.001378	-0.235344	-0.896895	0.374423
11058		9.843390	-0.023957	4.026438	0.029194	0.000561	-0.011426	1.000000	0.000365	0.000007	-0.000143	0.096477	0.361773	0.927261	-0.967383	0.253310	0.001822	-0.234226	-0.897192	0.374412
11059		9.812162	0.014452	4.052902	0.004345	0.004129	-0.001909	1.000000	0.000054	0.000052	-0.000024	0.096292	0.361821	0.927261	-0.967485	0.252922	0.001778	-0.233882	-0.897282	0.374411
11060		9.813646	0.010462	4.024314	-0.000178	-0.001455	0.000070	1.000000	-0.000002	-0.000018	0.000001	0.096027	0.361800	0.927297	-0.967592	0.252514	0.001677	-0.233548	-0.897406	0.374323
11061		9.822742	0.047152	4.060985	-0.005859	-0.007017	-0.000588	1.000000	-0.000073	-0.000088	-0.000007	0.095797	0.361561	0.927414	-0.967624	0.252390	0.001553	-0.233509	-0.897537	0.374034
11062		9.858123	0.048159	4.087697	-0.018518	-0.003851	-0.002022	1.000000	-0.000231	-0.000048	-0.000025	0.095466	0.361481	0.927479	-0.967587	0.252534	0.001171	-0.233797	-0.897529	0.373873
11063		9.890055	-0.051252	4.068515	-0.005001	0.005808	-0.002463	1.000000	-0.000063	0.000073	-0.000031	0.095363	0.361505	0.927480	-0.967610	0.252448	0.001092	-0.233746	-0.897543	0.373870
11064		9.824906	-0.003882	4.085817	0.025810	0.005991	-0.004363	1.000000	0.000323	0.000075	-0.000055	0.095165	0.361648	0.927445	-0.967834	0.251587	0.001205	-0.232898	-0.897727	0.373958
11065		9.804489	0.085577	4.091902	0.003394	0.000058	-0.003087	1.000000	0.000042	0.000001	-0.000039	0.094938	0.361643	0.927470	-0.967936	0.251194	0.001134	-0.232565	-0.897840	0.373895
11066		9.850867	-0.001886	4.094862	-0.029027	0.003298	0.005854	1.000000	-0.000363	0.000041	0.000073	0.094535	0.361749	0.927470	-0.967869	0.251454	0.000576	-0.233008	-0.897724	0.373897
11067		9.882201	-0.024282	4.064794	-0.001490	0.008851	0.007817	1.000000	-0.000019	0.000111	0.000098	0.094085	0.362083	0.927386	-0.968022	0.250863	0.000262	-0.232552	-0.897755	0.374107
11068		9.839909	0.093242	4.090231	0.012730	0.014897	0.003893	1.000000	0.000159	0.000186	0.000049	0.093836	0.362445	0.927269	-0.968209	0.250143	0.000205	-0.231876	-0.897809	0.374395
11069		9.812612	0.072515	4.062779	-0.008407	0.015278	-0.008765	1.000000	-0.000105	0.000191	-0.000110	0.093955	0.362602	0.927196	-0.968171	0.250291	0.000224	-0.231987	-0.897705	0.374577
11070		9.796055	-0.034160	4.061548	-0.002882	0.008351	-0.010480	1.000000	-0.000036	0.000104	-0.000131	0.093944	0.362774	0.927130	-0.968239	0.250026	0.000278	-0.231706	-0.897709	0.374741
11071		9.848834	-0.014308	4.074245	0.008728	0.012140	0.000933	1.000000	0.000109	0.000152	0.000012	0.093747	0.363049	0.927042	-0.968394	0.249425	0.000249	-0.231137	-0.897765	0.374958
11072		9.856600	0.024019	4.040451	0.000082	0.025848	0.013543	1.000000	0.000001	0.000323	0.000169	0.093323	0.363642	0.926852	-0.968470	0.249128	-0.000230	-0.230989	-0.897608	0.375426
11073		9.807826	0.089417	3.997610	-0.012635	0.028266	0.011338	1.000000	-0.000158	0.000353	0.000142	0.092895	0.364360	0.926613	-0.968503	0.249001	-0.000817	-0.231025	-0.897352	0.376015
11074		9.820992	0.096030	4.047024	-0.015051	0.002434	-0.000391	1.000000	-0.000188	0.000030	-0.000005	0.092656	0.364410	0.926618	-0.968507	0.248984	-0.001073	-0.231104	-0.897336	0.376004
11075		9.817739	0.052401	4.040547	0.001502	-0.000955	-0.009341	1.000000	0.000019	-0.000012	-0.000117	0.092537	0.364398	0.926634	-0.968610	0.248582	-0.001026	-0.230719	-0.897453	0.375963
11076		9.795296	0.012363	4.048928	0.029218	0.024231	-0.015922	1.000000	0.000365	0.000303	-0.000199	0.092732	0.364907	0.926414	-0.968852	0.247640	-0.000564	-0.229623	-0.897506	0.376505
11077		9.819641	0.078304	4.028173	0.014612	0.030239	-0.010178	1.000000	0.000183	0.000378	-0.000127	0.092892	0.365513	0.926159	-0.968997	0.247073	-0.000320	-0.228946	-0.897416	0.377132
11078		9.845076	0.043701	3.971685	-0.018215	0.015622	-0.001264	1.000000	-0.000228	0.000195	-0.000016	0.092671	0.365876	0.926038	-0.968960	0.247217	-0.000709	-0.229191	-0.897228	0.377429
11079		9.865732	0.047638	3.973773	-0.011355	-0.003232	-0.002873	1.000000	-0.000142	-0.000040	-0.000036	0.092431	0.365816	0.926086	-0.968985	0.247119	-0.000903	-0.229184	-0.897280	0.377311
11080		9.833279	0.124801	4.045317	-0.003988	-0.002657	-0.015575	1.000000	-0.000050	-0.000033	-0.000195	0.092454	0.365736	0.926115	-0.969037	0.246913	-0.000770	-0.228952	-0.897369	0.377240
11081		9.778324	0.059170	4.023081	-0.009782	0.002993	-0.030278	1.000000	-0.000122	0.000037	-0.000378	0.092952	0.365544	0.926141	-0.968945	0.247275	-0.000350	-0.229139	-0.897348	0.377177
11082		9.789644	-0.045425	4.050866	-0.000792	-0.000048	-0.024831	1.000000	-0.000010	-0.000001	-0.000310	0.093342	0.365291	0.926202	-0.968916	0.247391	0.000076	-0.229106	-0.897418	0.377029
11083		9.837152	-0.035087	4.059855	0.013394	0.003473	-0.003538	1.000000	0.000167	0.000043	-0.000044	0.093259	0.365292	0.926210	-0.969061	0.246823	0.000228	-0.228526	-0.897575	0.377009
11084		9.815552	0.059697	4.019898	0.007320	0.013043	0.007092	1.000000	0.000092	0.000163	0.000089	0.092835	0.365669	0.926104	-0.969209	0.246238	-0.000070	-0.228068	-0.897582	0.377269
11085		9.824278	0.132859	4.001867	-0.022369	0.009691	0.009181	1.000000	-0.000280	0.000121	0.000115	0.092458	0.365827	0.926079	-0.969120	0.246590	-0.000654	-0.228601	-0.897421	0.377329
11086		9.827619	0.093715	4.020501	-0.035004	-0.011488	-0.002706	1.000000	-0.000438	-0.000144	-0.000034	0.092296	0.365412	0.926259	-0.968932	0.247325	-0.001023	-0.229461	-0.897387	0.376887
11087		9.858475	0.059676	4.044321	-0.005218	-0.012834	-0.015108	1.000000	-0.000065	-0.000160	-0.000189	0.092230	0.365108	0.926385	-0.968973	0.247163	-0.000942	-0.229312	-0.897556	0.376576
11088		9.822864	0.098777	4.084971	0.002015	0.001938	-0.019757	1.000000	0.000025	0.000024	-0.000247	0.092464	0.364971	0.926416	-0.968981	0.247136	-0.000649	-0.229187	-0.897619	0.376501
11089		9.823992	0.023307	4.046024	-0.002166	0.011083	-0.020186	1.000000	-0.000027	0.000139	-0.000252	0.092741	0.365118	0.926330	-0.969020	0.246984	-0.000335	-0.228911	-0.897601	0.376712
11090		9.821969	0.051618	4.047915	0.006709	0.007340	-0.013917	1.000000	0.000084	0.000092	-0.000174	0.092827	0.365285	0.926256	-0.969155	0.246450	-0.000066	-0.228300	-0.897680	0.376895
11091		9.814475	0.067164	4.046521	-0.003213	-0.000820	-0.016670	1.000000	-0.000040	-0.000010	-0.000208	0.092976	0.365140	0.926298	-0.969170	0.246394	0.000152	-0.228179	-0.897754	0.376791
11092		9.836507	0.054866	4.024009	-0.006800	0.002368	-0.011911	1.000000	-0.000085	0.000030	-0.000149	0.093044	0.365128	0.926296	-0.969202	0.246266	0.000280	-0.228013	-0.897794	0.376797
11093		9.841305	0.054236	4.032267	-0.006859	0.004030	-0.018158	1.000000	-0.000086	0.000050	-0.000227	0.093290	0.365035	0.926308	-0.969162	0.246422	0.000497	-0.228081	-0.897789	0.376767
11094		9.820792	0.030308	4.032924	0.006276	0.002987	-0.022398	1.000000	0.000078	0.000037	-0.000280	0.093649	0.364875	0.926335	-0.969183	0.246339	0.000950	-0.227846	-0.897877	0.376700
11095		9.777998	0.026389	4.032461	0.002256	0.002584	-0.023763	1.000000	0.000028	0.000032	-0.000297	0.094051	0.364683	0.926370	-0.969174	0.246372	0.001408	-0.227718	-0.897946	0.376613
11096		9.806493	-0.016481	4.041635	-0.021789	0.000765	-0.013148	1.000000	-0.000272	0.000010	-0.000164	0.094148	0.364516	0.926426	-0.969036	0.246915	0.001326	-0.228265	-0.897865	0.376475
11097		9.857245	-0.079747	4.027885	-0.025057	0.001245	0.007159	1.000000	-0.000313	0.000016	0.000089	0.093742	0.364587	0.926439	-0.969009	0.247024	0.000836	-0.228548	-0.897806	0.376444
11098		9.849277	-0.028206	3.996841	0.005330	0.004908	0.013398	1.000000	0.000067	0.000061	0.000167	0.093159	0.364799	0.926414	-0.969161	0.246429	0.000420	-0.228142	-0.897883	0.376506
11099		9.857174	0.082870	4.046551	0.009084	-0.003874	0.006951	1.000000	0.000114	-0.000048	0.000087	0.092714	0.364699	0.926498	-0.969275	0.245978	0.000170	-0.227836	-0.898048	0.376299
11100		9.798456	0.083571	4.073667	-0.009433	-0.011664	0.000145	1.000000	-0.000118	-0.000146	0.000002	0.092390	0.364437	0.926634	-0.969305	0.245863	-0.000052	-0.227844	-0.898185	0.375966
11101		9.808731	-0.015391	4.081048	0.006154	-0.000223	-0.003510	1.000000	0.000077	-0.000003	-0.000044	0.092129	0.364461	0.926650	-0.969422	0.245401	-0.000138	-0.227451	-0.898302	0.375925
11102		9.847340	0.028423	4.088886	0.027079	0.014587	0.001506	1.000000	0.000338	0.000182	0.000019	0.091890	0.364832	0.926528	-0.969678	0.244385	-0.000060	-0.226451	-0.898428	0.376227
11103		9.862494	0.057241	4.056657	0.012250	0.017524	0.009660	1.000000	0.000153	0.000219	0.000121	0.091544	0.365255	0.926395	-0.969844	0.243726	-0.000258	-0.225881	-0.898436	0.376552
11104		9.851814	0.043405	4.021693	0.013338	0.008942	0.007542	1.000000	0.000167	0.000112	0.000094	0.091096	0.365511	0.926339	-0.970005	0.243083	-0.000525	-0.225369	-0.898506	0.376692
11105		9.821933	0.111475	4.036909	0.031205	-0.002361	-0.000429	1.000000	0.000390	-0.000030	-0.000005	0.090949	0.365309	0.926433	-0.970188	0.242354	-0.000320	-0.224641	-0.898785	0.376460
11106		9.865233	0.102030	4.039135	0.021435	0.008314	-0.014102	1.000000	0.000268	0.000104	-0.000176	0.091135	0.365330	0.926406	-0.970314	0.241848	0.000081	-0.224020	-0.898913	0.376525
11107		9.887485	0.028416	4.026056	0.014434	0.017004	-0.014874	1.000000	0.000180	0.000213	-0.000186	0.091397	0.365505	0.926311	-0.970372	0.241616	0.000407	-0.223663	-0.898903	0.376759
11108		9.825477	0.020824	4.040363	0.002342	0.010213	-0.003312	1.000000	0.000029	0.000128	-0.000041	0.091287	0.365708	0.926242	-0.970459	0.241267	0.000385	-0.223331	-0.898915	0.376929
11109		9.827729	0.024930	4.055159	-0.007416	0.006587	0.003313	1.000000	-0.000093	0.000082	0.000041	0.090967	0.365921	0.926189	-0.970536	0.240957	0.000125	-0.223125	-0.898911	0.377059
11110		9.851900	0.048311	4.065427	-0.004133	0.014532	0.007427	1.000000	-0.000052	0.000182	0.000093	0.090651	0.366245	0.926092	-0.970591	0.240733	-0.000197	-0.223014	-0.898839	0.377297
11111		9.832425	0.066398	4.053233	0.006614	0.026133	-0.000349	1.000000	0.000083	0.000327	-0.000004	0.090557	0.366765	0.925896	-0.970665	0.240437	-0.000306	-0.222732	-0.898707	0.377779
11112		9.794750	0.085459	4.053238	0.004931	0.015509	-0.002044	1.000000	0.000062	0.000194	-0.000026	0.090396	0.367151	0.925758	-0.970792	0.239923	-0.000359	-0.222243	-0.898686	0.378116
11113		9.817102	0.078628	4.074863	-0.013975	0.005565	0.000687	1.000000	-0.000175	0.000070	0.000009	0.090228	0.367215	0.925749	-0.970774	0.239996	-0.000582	-0.222390	-0.898641	0.378137
11114		9.838721	0.054201	4.101749	-0.016570	0.012021	0.002667	1.000000	-0.000207	0.000150	0.000033	0.089991	0.367486	0.925665	-0.970761	0.240047	-0.000923	-0.222542	-0.898516	0.378343
11115		9.837508	0.072522	4.077251	-0.001579	0.026984	-0.000645	1.000000	-0.000020	0.000337	-0.000008	0.089940	0.368053	0.925445	-0.970819	0.239810	-0.001024	-0.222308	-0.898347	0.378882
11116		9.849701	0.069557	4.059465	0.001767	0.030241	-0.005218	1.000000	0.000022	0.000378	-0.000065	0.089995	0.368658	0.925199	-0.970867	0.239615	-0.001041	-0.222075	-0.898151	0.379482
11117		9.861075	0.055312	4.023309	0.006577	0.023836	-0.005807	1.000000	0.000082	0.000298	-0.000073	0.090027	0.369075	0.925029	-0.970918	0.239410	-0.001028	-0.221840	-0.898035	0.379895
11118		9.809739	0.092039	4.064874	-0.000513	0.008305	-0.012254	1.000000	-0.000006	0.000104	-0.000153	0.090149	0.369159	0.924984	-0.970958	0.239249	-0.000854	-0.221617	-0.898043	0.380006
11119		9.813962	0.091346	4.074427	-0.010908	0.008333	-0.016331	1.000000	-0.000136	0.000104	-0.000204	0.090343	0.369239	0.924933	-0.970939	0.239328	-0.000704	-0.221622	-0.897989	0.380130
11120		9.789573	0.022167	4.071051	-0.002916	0.020995	-0.021276	1.000000	-0.000036	0.000262	-0.000266	0.090742	0.369535	0.924776	-0.970924	0.239387	-0.000388	-0.221523	-0.897852	0.380513
11121		9.793549	-0.033476	4.043585	0.012462	0.026944	-0.011470	1.000000	0.000156	0.000337	-0.000143	0.090999	0.369979	0.924573	-0.971005	0.239060	-0.000094	-0.221064	-0.897756	0.381006
11122		9.815970	0.000840	4.010519	0.007548	0.025415	0.004781	1.000000	0.000094	0.000318	0.000060	0.090800	0.370541	0.924367	-0.971111	0.238627	-0.000264	-0.220677	-0.897639	0.381504
11123		9.807113	0.069942	3.978518	-0.002877	0.020652	0.011642	1.000000	-0.000036	0.000258	0.000146	0.090344	0.371136	0.924173	-0.971236	0.238116	-0.000680	-0.220313	-0.897529	0.381973
11124		9.828069	0.121038	4.017305	-0.011781	-0.000666	0.002780	1.000000	-0.000147	-0.000008	0.000035	0.090031	0.371122	0.924209	-0.971246	0.238077	-0.000988	-0.220399	-0.897545	0.381885
11125		9.836850	0.117504	4.059638	-0.017184	-0.012568	-0.009087	1.000000	-0.000215	-0.000157	-0.000114	0.090048	0.370657	0.924394	-0.971153	0.238456	-0.001011	-0.220802	-0.897637	0.381437
11126		9.817243	0.056231	4.041088	0.019209	0.007579	-0.021633	1.000000	0.000240	0.000095	-0.000270	0.090391	0.370673	0.924355	-0.971279	0.237944	-0.000437	-0.220107	-0.897766	0.381534
11127		9.822901	0.085718	4.087548	0.033298	0.016876	-0.025325	1.000000	0.000416	0.000211	-0.000317	0.090822	0.370927	0.924210	-0.971496	0.237057	0.000327	-0.218969	-0.897896	0.381884
11128		9.855230	0.049973	4.060193	0.005685	0.010398	-0.015698	1.000000	0.000071	0.000130	-0.000196	0.091078	0.371003	0.924155	-0.971538	0.236883	0.000651	-0.218675	-0.897911	0.382018
11129		9.818888	0.023191	4.019670	0.003371	-0.007665	-0.010936	1.000000	0.000042	-0.000096	-0.000137	0.091088	0.370756	0.924253	-0.971620	0.236547	0.000867	-0.218308	-0.898101	0.381780
11130		9.836734	0.112719	4.109897	0.005230	-0.019889	-0.011068	1.000000	0.000065	-0.000249	-0.000138	0.091056	0.370169	0.924491	-0.971662	0.236371	0.001059	-0.218131	-0.898390	0.381202
11131		9.822310	0.071138	4.095724	-0.015865	-0.007896	-0.020571	1.000000	-0.000198	-0.000099	-0.000257	0.091286	0.369822	0.924607	-0.971581	0.236706	0.001247	-0.218399	-0.898444	0.380920
11132		9.830455	-0.015892	4.109647	0.005684	0.003357	-0.017327	1.000000	0.000071	0.000042	-0.000217	0.091547	0.369717	0.924624	-0.971610	0.236582	0.001600	-0.218158	-0.898520	0.380879
11133		9.801943	-0.005107	4.106872	0.017317	-0.001448	-0.008336	1.000000	0.000216	-0.000018	-0.000104	0.091573	0.369545	0.924690	-0.971721	0.236124	0.001866	-0.217652	-0.898711	0.380717
11134		9.826618	0.061494	4.108579	-0.001238	0.001589	0.003684	1.000000	-0.000015	0.000020	0.000046	0.091298	0.369519	0.924727	-0.971756	0.235980	0.001644	-0.217610	-0.898760	0.380627
11135		9.836389	0.059016	4.077174	-0.020820	0.005393	0.006762	1.000000	-0.000260	0.000067	0.000085	0.090981	0.369616	0.924720	-0.971712	0.236168	0.001207	-0.217943	-0.898670	0.380647
11136		9.843802	0.056927	4.099123	-0.012032	0.008101	0.002961	1.000000	-0.000150	0.000101	0.000037	0.090724	0.369763	0.924686	-0.971698	0.236223	0.000876	-0.218109	-0.898596	0.380729
11137		9.830988	0.071222	4.090592	-0.000714	0.002059	-0.001237	1.000000	-0.000009	0.000026	-0.000015	0.090510	0.369824	0.924683	-0.971784	0.235871	0.000785	-0.217815	-0.898663	0.380738
11138		9.817503	0.103439	4.127707	-0.006327	-0.001953	-0.004309	1.000000	-0.000079	-0.000024	-0.000054	0.090401	0.369671	0.924755	-0.971771	0.235925	0.000686	-0.217919	-0.898712	0.380563
11139		9.845257	0.050003	4.095427	0.002189	0.004095	-0.010312	1.000000	0.000027	0.000051	-0.000129	0.090520	0.369636	0.924757	-0.971818	0.235732	0.000902	-0.217661	-0.898777	0.380557
11140		9.860464	0.061491	4.090818	0.007955	0.013490	-0.008040	1.000000	0.000099	0.000169	-0.000101	0.090613	0.369831	0.924670	-0.971899	0.235397	0.001091	-0.217261	-0.898784	0.380768
11141		9.805197	0.083727	4.077190	-0.010813	0.013600	-0.004568	1.000000	-0.000135	0.000170	-0.000057	0.090546	0.370118	0.924562	-0.971911	0.235346	0.000969	-0.217233	-0.898680	0.381031
11142		9.832305	0.028104	4.046648	-0.015267	0.002484	-0.001163	1.000000	-0.000191	0.000031	-0.000015	0.090354	0.370115	0.924582	-0.971875	0.235494	0.000706	-0.217473	-0.898642	0.380983
11143		9.856089	0.073257	4.077823	-0.003911	-0.002037	-0.002231	1.000000	-0.000049	-0.000025	-0.000028	0.090203	0.370003	0.924641	-0.971908	0.235361	0.000632	-0.217391	-0.898723	0.380839
11144		9.843503	0.085045	4.092404	-0.011426	0.007762	-0.005913	1.000000	-0.000143	0.000097	-0.000074	0.090202	0.370046	0.924624	-0.971862	0.235552	0.000539	-0.217598	-0.898655	0.380881
11145		9.785394	0.042745	4.099982	-0.014248	0.008131	-0.009375	1.000000	-0.000178	0.000102	-0.000117	0.090183	0.370209	0.924561	-0.971858	0.235568	0.000471	-0.217623	-0.898584	0.381035
11146		9.799577	-0.011158	4.064780	0.008891	0.004254	-0.007739	1.000000	0.000111	0.000053	-0.000097	0.090165	0.370232	0.924553	-0.971956	0.235162	0.000619	-0.217190	-0.898681	0.381053
11147		9.917905	0.013641	4.098585	0.006355	0.012948	-0.001857	1.000000	0.000079	0.000162	-0.000023	0.090096	0.370414	0.924487	-0.972014	0.234922	0.000602	-0.216959	-0.898669	0.381213
11148		9.847134	0.051996	4.015726	-0.004581	0.019458	0.006091	1.000000	-0.000057	0.000243	0.000076	0.089874	0.370801	0.924353	-0.972038	0.234824	0.000311	-0.216945	-0.898535	0.381537
11149		9.776471	0.059614	4.030723	-0.003619	-0.006144	-0.002400	1.000000	-0.000045	-0.000077	-0.000030	0.089655	0.370644	0.924438	-0.972091	0.234603	0.000215	-0.216796	-0.898657	0.381333
11150		9.808356	0.068298	4.136415	0.000572	-0.029247	-0.009137	1.000000	0.000007	-0.000366	-0.000114	0.089554	0.369887	0.924751	-0.972141	0.234397	0.000388	-0.216615	-0.899023	0.380574
11151		9.831446	0.032820	4.163423	0.010099	0.001105	-0.009076	1.000000	0.000126	0.000014	-0.000113	0.089596	0.369831	0.924769	-0.972255	0.233924	0.000647	-0.216087	-0.899169	0.380528
11152		9.801330	0.014142	4.100497	0.032504	0.039948	-0.005143	1.000000	0.000406	0.000499	-0.000064	0.089744	0.370613	0.924441	-0.972453	0.233098	0.000954	-0.215132	-0.899061	0.381323
11153		9.790155	0.079954	4.029713	0.031842	0.030153	0.001331	1.000000	0.000398	0.000377	0.000017	0.089625	0.371280	0.924185	-0.972700	0.232065	0.001100	-0.214063	-0.899053	0.381943
11154		9.836911	0.107837	4.013426	0.006255	0.002038	0.000437	1.000000	0.000078	0.000025	0.000005	0.089513	0.371214	0.924223	-0.972764	0.231794	0.001115	-0.213815	-0.899151	0.381852
11155		9.862504	0.094329	4.027032	0.000857	-0.005231	-0.004328	1.000000	0.000011	-0.000065	-0.000054	0.089358	0.371084	0.924290	-0.972849	0.231438	0.001135	-0.213495	-0.899296	0.381690
11156		9.828094	0.084093	4.069306	0.004806	0.004726	-0.016115	1.000000	0.000060	0.000059	-0.000201	0.089618	0.371011	0.924294	-0.972873	0.231337	0.001470	-0.213278	-0.899352	0.381679
11157		9.794683	0.026850	4.025660	0.015836	0.012171	-0.018475	1.000000	0.000198	0.000152	-0.000231	0.089901	0.371178	0.924199	-0.972994	0.230821	0.001945	-0.212602	-0.899416	0.381905
11158		9.784982	0.012151	4.036634	0.022586	0.003653	-0.011300	1.000000	0.000282	0.000046	-0.000141	0.090036	0.371073	0.924229	-0.973104	0.230353	0.002312	-0.212041	-0.899579	0.381832
11159		9.844293	0.049029	4.025910	-0.001549	-0.002904	0.004554	1.000000	-0.000019	-0.000036	0.000057	0.089749	0.370925	0.924316	-0.973129	0.230250	0.002090	-0.212049	-0.899666	0.381623
11160		9.833907	0.092624	4.004120	-0.024169	-0.001811	0.012002	1.000000	-0.000302	-0.000023	0.000150	0.089247	0.370878	0.924383	-0.973064	0.230530	0.001455	-0.212559	-0.899614	0.381462
11161		9.804539	0.114486	4.023355	-0.026625	-0.005588	0.006784	1.000000	-0.000333	-0.000070	0.000085	0.088815	0.370756	0.924474	-0.972994	0.230827	0.000904	-0.213058	-0.899588	0.381244
11162		9.833784	0.097769	4.071705	-0.018505	-0.011788	0.000872	1.000000	-0.000231	-0.000147	0.000011	0.088521	0.370475	0.924615	-0.972968	0.230941	0.000616	-0.213303	-0.899675	0.380904
11163		9.866158	0.098457	4.061574	-0.003986	-0.007454	-0.003032	1.000000	-0.000050	-0.000093	-0.000038	0.088351	0.370233	0.924728	-0.972985	0.230869	0.000529	-0.213295	-0.899793	0.380629
11164		9.847781	0.134260	4.090207	-0.009312	0.000062	-0.005345	1.000000	-0.000116	0.000001	-0.000067	0.088329	0.370129	0.924772	-0.972977	0.230900	0.000518	-0.213338	-0.899828	0.380522
11165		9.808889	0.092997	4.083599	-0.013284	-0.001901	-0.011458	1.000000	-0.000166	-0.000024	-0.000143	0.088430	0.369966	0.924827	-0.972936	0.231074	0.000591	-0.213485	-0.899850	0.380387
11166		9.828614	0.067990	4.095230	-0.004836	-0.002130	-0.009650	1.000000	-0.000060	-0.000027	-0.000121	0.088515	0.369749	0.924906	-0.972913	0.231170	0.000695	-0.213554	-0.899915	0.380195
11167		9.869493	0.104174	4.096875	0.004231	0.005814	-0.006471	1.000000	0.000053	0.000073	-0.000081	0.088411	0.369874	0.924866	-0.973012	0.230755	0.000730	-0.213147	-0.899970	0.380293
11168		9.864164	0.125776	4.086205	-0.005145	0.014503	-0.010923	1.000000	-0.000064	0.000181	-0.000137	0.088571	0.370066	0.924774	-0.973005	0.230783	0.000838	-0.213112	-0.899884	0.380516
11169		9.830988	0.118146	4.054704	-0.010003	0.004542	-0.017505	1.000000	-0.000125	0.000057	-0.000219	0.088844	0.370005	0.924772	-0.972962	0.230962	0.001065	-0.213193	-0.899863	0.380520
11170		9.829103	0.090451	4.066508	-0.003581	-0.000515	-0.021894	1.000000	-0.000045	-0.000006	-0.000274	0.089190	0.369818	0.924814	-0.972953	0.230997	0.001461	-0.213089	-0.899931	0.380418
11171		9.817231	0.031763	4.070211	0.003301	0.012084	-0.025533	1.000000	0.000041	0.000151	-0.000319	0.089677	0.369853	0.924752	-0.972941	0.231044	0.001944	-0.212940	-0.899904	0.380564
11172		9.842579	0.006561	4.041073	0.006422	0.018502	-0.017446	1.000000	0.000080	0.000231	-0.000218	0.089980	0.370152	0.924603	-0.973007	0.230766	0.002306	-0.212513	-0.899853	0.380925
11173		9.829605	0.043493	4.005528	-0.008761	0.010581	-0.002358	1.000000	-0.000110	0.000132	-0.000029	0.089933	0.370261	0.924564	-0.972977	0.230891	0.002177	-0.212668	-0.899776	0.381020
11174		9.826275	0.094842	3.982603	-0.015311	0.001745	-0.007415	1.000000	-0.000191	0.000022	-0.000093	0.089889	0.370184	0.924599	-0.972910	0.231175	0.002030	-0.212993	-0.899735	0.380936
11175		9.826795	0.086434	4.051885	-0.008035	-0.015489	-0.021654	1.000000	-0.000100	-0.000194	-0.000271	0.090134	0.369639	0.924794	-0.972858	0.231392	0.002331	-0.213128	-0.899903	0.380462
11176		9.839327	0.048793	4.135624	-0.012551	-0.006228	-0.021168	1.000000	-0.000157	-0.000078	-0.000265	0.090458	0.369275	0.924907	-0.972774	0.231741	0.002615	-0.213373	-0.899962	0.380184
11177		9.794805	0.016690	4.099540	-0.003142	0.019370	-0.010163	1.000000	-0.000039	0.000242	-0.000127	0.090605	0.369592	0.924766	-0.972785	0.231694	0.002711	-0.213261	-0.899844	0.380526
11178		9.796247	0.050344	4.041427	0.012145	0.027053	-0.006551	1.000000	0.000152	0.000338	-0.000082	0.090737	0.370119	0.924542	-0.972896	0.231224	0.002918	-0.212696	-0.899748	0.381068
11179		9.864987	0.067923	3.980769	0.010440	0.017245	-0.004343	1.000000	0.000130	0.000216	-0.000054	0.090737	0.370435	0.924416	-0.973001	0.230782	0.003026	-0.212218	-0.899732	0.381374
11180		9.899054	0.095882	3.959172	0.011303	0.004196	-0.005619	1.000000	0.000141	0.000052	-0.000070	0.090728	0.370419	0.924423	-0.973088	0.230411	0.003178	-0.211820	-0.899834	0.381355
11181		9.818890	0.158278	4.015950	-0.010416	-0.008516	-0.012747	1.000000	-0.000130	-0.000106	-0.000159	0.090844	0.370059	0.924556	-0.973041	0.230607	0.003306	-0.211985	-0.899932	0.381032
11182		9.804908	0.076418	4.009233	-0.015538	-0.006565	-0.022213	1.000000	-0.000194	-0.000082	-0.000278	0.091149	0.369678	0.924678	-0.972929	0.231077	0.003523	-0.212370	-0.899968	0.380733
11183		9.799130	0.013471	4.018605	0.012693	0.003417	-0.021045	1.000000	0.000159	0.000043	-0.000263	0.091500	0.369540	0.924699	-0.972978	0.230863	0.004017	-0.211995	-0.900079	0.380678
11184		9.821331	0.055736	4.009277	0.026745	0.005573	-0.004471	1.000000	0.000334	0.000070	-0.000056	0.091435	0.369541	0.924705	-0.973139	0.230180	0.004237	-0.211282	-0.900254	0.380662
11185		9.834179	0.113470	4.002534	0.001037	0.000808	0.006578	1.000000	0.000013	0.000010	0.000082	0.091102	0.369521	0.924746	-0.973202	0.229915	0.004003	-0.211134	-0.900329	0.380565
11186		9.838921	0.151111	3.979706	-0.009375	-0.006286	0.007887	1.000000	-0.000117	-0.000079	0.000099	0.090718	0.369352	0.924851	-0.973218	0.229854	0.003667	-0.211226	-0.900415	0.380312
11187		9.835396	0.158733	4.035089	-0.012443	-0.013452	-0.008009	1.000000	-0.000156	-0.000168	-0.000100	0.090628	0.368945	0.925022	-0.973184	0.229998	0.003612	-0.211421	-0.900545	0.379896
11188		9.862667	0.109840	4.029023	-0.005765	-0.006963	-0.011611	1.000000	-0.000072	-0.000087	-0.000145	0.090675	0.368699	0.925116	-0.973203	0.229915	0.003757	-0.211313	-0.900666	0.379667
11189		9.828652	0.101782	4.046787	-0.009166	-0.000042	-0.008518	1.000000	-0.000115	-0.000001	-0.000106	0.090655	0.368662	0.925132	-0.973225	0.229823	0.003784	-0.211222	-0.900705	0.379626
11190		9.808304	0.113390	4.040082	-0.010927	-0.001994	-0.007774	1.000000	-0.000137	-0.000025	-0.000097	0.090617	0.368520	0.925193	-0.973202	0.229921	0.003738	-0.211344	-0.900738	0.379479
11191		9.829787	0.119609	4.040131	-0.013665	-0.004828	-0.009734	1.000000	-0.000171	-0.000060	-0.000122	0.090609	0.368289	0.925286	-0.973145	0.230164	0.003684	-0.211611	-0.900771	0.379253
11192		9.861233	0.114966	4.079356	-0.012034	0.001856	-0.007256	1.000000	-0.000150	0.000023	-0.000091	0.090622	0.368182	0.925327	-0.973086	0.230415	0.003619	-0.211877	-0.900750	0.379154
11193		9.866109	0.119068	4.040319	-0.013625	0.003689	-0.006550	1.000000	-0.000170	0.000046	-0.000082	0.090604	0.368177	0.925331	-0.973055	0.230545	0.003546	-0.212025	-0.900719	0.379145
11194		9.843189	0.138645	4.039740	-0.014349	0.001116	-0.013274	1.000000	-0.000179	0.000014	-0.000166	0.090755	0.368064	0.925361	-0.973000	0.230776	0.003636	-0.212213	-0.900706	0.379070
11195		9.819877	0.083954	4.079185	-0.017859	-0.002745	-0.017246	1.000000	-0.000223	-0.000034	-0.000216	0.090971	0.367828	0.925433	-0.972906	0.231171	0.003755	-0.212552	-0.900701	0.378892
11196		9.835139	0.023378	4.090016	-0.010378	0.005474	-0.012604	1.000000	-0.000130	0.000068	-0.000158	0.091112	0.367777	0.925440	-0.972843	0.231434	0.003805	-0.212779	-0.900655	0.378875
11197		9.855158	0.033374	4.070075	-0.007501	0.017488	-0.002817	1.000000	-0.000094	0.000219	-0.000035	0.091086	0.368101	0.925313	-0.972849	0.231409	0.003708	-0.212761	-0.900528	0.379185
11198		9.844681	0.073554	4.024493	-0.024747	0.017143	0.010094	1.000000	-0.000309	0.000214	0.000126	0.090747	0.368490	0.925192	-0.972791	0.231661	0.003149	-0.213171	-0.900305	0.379486
11199		9.802588	0.093822	3.991135	-0.023576	0.008590	0.007946	1.000000	-0.000295	0.000107	0.000099	0.090398	0.368650	0.925162	-0.972719	0.231971	0.002611	-0.213649	-0.900159	0.379563
11200		9.834995	0.114342	4.043847	-0.008542	-0.003629	-0.003360	1.000000	-0.000107	-0.000045	-0.000042	0.090242	0.368490	0.925241	-0.972715	0.231990	0.002479	-0.213733	-0.900220	0.379371
11201		9.850640	0.111779	4.108662	-0.019767	0.007756	-0.005390	1.000000	-0.000247	0.000097	-0.000067	0.090200	0.368525	0.925231	-0.972612	0.232422	0.002244	-0.214217	-0.900094	0.379397
11202		9.808731	0.042943	4.070651	-0.023518	0.031968	0.002748	1.000000	-0.000294	0.000400	0.000034	0.090168	0.369145	0.924987	-0.972518	0.232819	0.001887	-0.214658	-0.899737	0.379993
11203		9.816773	0.060587	4.016844	0.006620	0.029763	0.009183	1.000000	0.000083	0.000372	0.000115	0.089898	0.369783	0.924759	-0.972607	0.232451	0.001600	-0.214370	-0.899570	0.380550
11204		9.867696	0.142975	3.975584	0.009678	0.019269	-0.000047	1.000000	0.000121	0.000241	-0.000001	0.089810	0.370184	0.924607	-0.972726	0.231953	0.001617	-0.213867	-0.899534	0.380919
11205		9.863813	0.150868	3.984953	-0.014975	0.013875	-0.001938	1.000000	-0.000187	0.000173	-0.000024	0.089752	0.370431	0.924513	-0.972698	0.232069	0.001445	-0.214016	-0.899402	0.381147
11206		9.801823	0.118005	4.025402	-0.027173	-0.003704	-0.003122	1.000000	-0.000340	-0.000046	-0.000039	0.089626	0.370271	0.924590	-0.972594	0.232506	0.001168	-0.214540	-0.899356	0.380962
11207		9.791027	0.100755	4.062364	-0.012904	-0.003038	-0.005373	1.000000	-0.000161	-0.000038	-0.000067	0.089569	0.370090	0.924668	-0.972558	0.232656	0.001090	-0.214727	-0.899391	0.380773
11208		9.814604	0.063527	4.041892	0.011242	0.016760	-0.006972	1.000000	0.000141	0.000210	-0.000087	0.089649	0.370408	0.924533	-0.972679	0.232150	0.001308	-0.214146	-0.899391	0.381100
11209		9.822893	0.065557	4.014838	0.018141	0.025257	0.004962	1.000000	0.000227	0.000316	0.000062	0.089458	0.370936	0.924340	-0.972829	0.231520	0.001242	-0.213542	-0.899336	0.381569
11210		9.819657	0.147323	3.984149	-0.006610	0.012009	0.013125	1.000000	-0.000083	0.000150	0.000164	0.089021	0.371223	0.924267	-0.972880	0.231308	0.000801	-0.213493	-0.899272	0.381747
11211		9.832211	0.199281	3.978594	-0.026995	-0.000122	0.011629	1.000000	-0.000337	-0.000002	0.000145	0.088557	0.371268	0.924293	-0.972834	0.231505	0.000217	-0.213898	-0.899203	0.381683
11212		9.843787	0.161638	4.017404	-0.012536	-0.001727	-0.004743	1.000000	-0.000157	-0.000022	-0.000059	0.088508	0.371118	0.924358	-0.972794	0.231671	0.000133	-0.214097	-0.899222	0.381526
11213		9.850202	0.136286	4.025462	0.006197	0.003873	-0.015076	1.000000	0.000077	0.000048	-0.000188	0.088661	0.371061	0.924366	-0.972838	0.231488	0.000386	-0.213836	-0.899293	0.381506
11214		9.789005	0.128033	4.036585	-0.005948	0.006460	-0.012920	1.000000	-0.000074	0.000081	-0.000162	0.088776	0.371111	0.924335	-0.972845	0.231455	0.000508	-0.213754	-0.899280	0.381582
11215		9.821028	0.095789	4.011950	-0.007665	-0.000247	-0.008377	1.000000	-0.000096	-0.000003	-0.000105	0.088795	0.371036	0.924363	-0.972860	0.231396	0.000573	-0.213681	-0.899327	0.381513
11216		9.842706	0.115421	4.031096	-0.001838	0.000610	-0.012432	1.000000	-0.000023	0.000008	-0.000155	0.088967	0.370883	0.924408	-0.972853	0.231422	0.000780	-0.213639	-0.899383	0.381403
11217		9.831469	0.106142	4.045627	-0.005368	0.003014	-0.017103	1.000000	-0.000067	0.000038	-0.000214	0.089218	0.370812	0.924413	-0.972846	0.231450	0.001050	-0.213566	-0.899405	0.381393
11218		9.811607	0.080196	4.045401	-0.006202	0.001195	-0.014431	1.000000	-0.000078	0.000015	-0.000180	0.089379	0.370689	0.924446	-0.972826	0.231535	0.001215	-0.213591	-0.899434	0.381311
11219		9.838372	0.096525	4.071999	-0.007953	-0.001588	-0.010601	1.000000	-0.000099	-0.000020	-0.000133	0.089435	0.370507	0.924514	-0.972790	0.231685	0.001256	-0.213731	-0.899470	0.381146
11220		9.833269	0.105906	4.041245	-0.011396	0.004624	-0.013699	1.000000	-0.000142	0.000058	-0.000171	0.089622	0.370466	0.924512	-0.972743	0.231883	0.001379	-0.213867	-0.899436	0.381150
11221		9.798624	0.054907	4.091177	-0.009278	0.013375	-0.016822	1.000000	-0.000116	0.000167	-0.000210	0.089932	0.370602	0.924427	-0.972699	0.232064	0.001594	-0.213936	-0.899333	0.381355
11222		9.796346	0.033533	4.057799	0.001854	0.009809	-0.010773	1.000000	0.000023	0.000123	-0.000135	0.090068	0.370675	0.924385	-0.972717	0.231987	0.001752	-0.213796	-0.899323	0.381456
11223		9.862563	0.018953	4.058246	0.000696	0.010375	0.003733	1.000000	0.000009	0.000130	0.000047	0.089819	0.370853	0.924338	-0.972764	0.231792	0.001527	-0.213688	-0.899300	0.381572
11224		9.831383	0.106455	4.022734	-0.002760	0.012542	0.012250	1.000000	-0.000034	0.000157	0.000153	0.089403	0.371102	0.924278	-0.972799	0.231649	0.001088	-0.213704	-0.899234	0.381718
11225		9.788209	0.149530	4.011343	-0.008718	0.002672	-0.000878	1.000000	-0.000109	0.000033	-0.000011	0.089244	0.371109	0.924291	-0.972803	0.231633	0.000926	-0.213753	-0.899235	0.381688
11226		9.808286	0.119197	4.045703	-0.012386	-0.013462	-0.008081	1.000000	-0.000155	-0.000168	-0.000101	0.089189	0.370656	0.924478	-0.972741	0.231892	0.000872	-0.214056	-0.899356	0.381234
11227		9.831324	0.092305	4.092533	-0.014027	-0.000104	0.003704	1.000000	-0.000175	-0.000001	0.000046	0.088908	0.370590	0.924531	-0.972706	0.232040	0.000529	-0.214332	-0.899344	0.381105
11228		9.831230	0.113003	4.042663	-0.008075	0.023072	0.010812	1.000000	-0.000101	0.000288	0.000135	0.088615	0.371081	0.924363	-0.972718	0.231990	0.000119	-0.214399	-0.899155	0.381515
11229		9.808823	0.184198	3.983259	-0.007007	0.021648	0.006448	1.000000	-0.000088	0.000271	0.000081	0.088433	0.371513	0.924206	-0.972731	0.231936	-0.000158	-0.214415	-0.898990	0.381893
11230		9.859779	0.178438	3.961481	-0.010449	0.000778	-0.005602	1.000000	-0.000131	0.000010	-0.000070	0.088427	0.371389	0.924257	-0.972689	0.232113	-0.000208	-0.214609	-0.898996	0.381771
11231		9.881075	0.176557	4.008361	-0.019506	-0.012610	-0.009682	1.000000	-0.000244	-0.000158	-0.000121	0.088414	0.370969	0.924427	-0.972600	0.232484	-0.000273	-0.215016	-0.899074	0.381359
11232		9.835820	0.138622	4.043898	-0.023351	-0.006115	-0.014142	1.000000	-0.000292	-0.000076	-0.000177	0.088548	0.370653	0.924541	-0.972469	0.233033	-0.000286	-0.215555	-0.899062	0.381083
11233		9.810410	0.099776	4.041077	-0.004042	0.006866	-0.019921	1.000000	-0.000051	0.000086	-0.000249	0.088889	0.370614	0.924524	-0.972442	0.233144	0.000036	-0.215534	-0.899049	0.381125
11234		9.793610	0.098686	4.026085	-0.006036	0.010474	-0.017449	1.000000	-0.000075	0.000131	-0.000218	0.089163	0.370705	0.924461	-0.972423	0.233226	0.000266	-0.215509	-0.898990	0.381277
11235		9.827789	0.054372	4.019968	-0.019365	-0.001919	-0.004128	1.000000	-0.000242	-0.000024	-0.000052	0.089071	0.370587	0.924517	-0.972361	0.233484	0.000090	-0.215827	-0.898972	0.381141
11236		9.817067	0.100017	3.998580	-0.007748	-0.004288	0.004824	1.000000	-0.000097	-0.000054	0.000060	0.088721	0.370450	0.924605	-0.972365	0.233465	-0.000236	-0.215950	-0.899033	0.380926
11237		9.849401	0.177155	4.039265	-0.009123	-0.001714	-0.002315	1.000000	-0.000114	-0.000021	-0.000029	0.088597	0.370306	0.924675	-0.972343	0.233557	-0.000368	-0.216100	-0.899069	0.380757
11238		9.865295	0.122986	4.002237	-0.014550	0.002840	-0.014669	1.000000	-0.000182	0.000035	-0.000183	0.088760	0.370206	0.924699	-0.972267	0.233873	-0.000306	-0.216375	-0.899028	0.380698
11239		9.839662	0.084541	4.000031	0.004204	0.003695	-0.015739	1.000000	0.000053	0.000046	-0.000197	0.088971	0.370138	0.924707	-0.972299	0.233741	-0.000011	-0.216146	-0.899090	0.380681
11240		9.824513	0.106258	4.019773	-0.008094	0.000792	-0.007378	1.000000	-0.000101	0.000010	-0.000092	0.088977	0.370026	0.924751	-0.972271	0.233859	-0.000026	-0.216271	-0.899106	0.380573
11241		9.811310	0.104742	4.015760	-0.026439	0.001140	-0.001798	1.000000	-0.000330	0.000014	-0.000022	0.088864	0.369920	0.924804	-0.972138	0.234408	-0.000350	-0.216911	-0.899006	0.380444
11242		9.827301	0.056300	4.021132	-0.013163	0.005587	-0.001228	1.000000	-0.000165	0.000070	-0.000015	0.088790	0.369940	0.924803	-0.972095	0.234585	-0.000508	-0.217133	-0.898952	0.380446
11243		9.873540	0.114615	4.044951	-0.002679	0.006393	0.002037	1.000000	-0.000033	0.000080	0.000025	0.088586	0.370009	0.924795	-0.972117	0.234496	-0.000702	-0.217120	-0.898947	0.380465
11244		9.845241	0.139323	4.014391	-0.014839	0.007428	0.001080	1.000000	-0.000185	0.000093	0.000014	0.088461	0.370107	0.924768	-0.972082	0.234638	-0.000919	-0.217326	-0.898869	0.380531
11245		9.820255	0.113273	4.006918	-0.008093	0.000795	-0.007375	1.000000	-0.000101	0.000010	-0.000092	0.088460	0.369994	0.924813	-0.972053	0.234758	-0.000942	-0.217456	-0.898884	0.380421
11246		9.805055	0.066270	4.019031	0.002859	0.000625	-0.010543	1.000000	0.000036	0.000008	-0.000132	0.088526	0.369889	0.924849	-0.972094	0.234589	-0.000774	-0.217245	-0.898972	0.380334
11247		9.822303	0.053211	4.013719	0.002191	0.007905	-0.001588	1.000000	0.000027	0.000099	-0.000020	0.088454	0.369965	0.924825	-0.972133	0.234430	-0.000802	-0.217104	-0.898982	0.380391
11248		9.866242	0.066678	4.031380	-0.011188	0.013389	0.011260	1.000000	-0.000140	0.000167	0.000141	0.088108	0.370275	0.924734	-0.972150	0.234356	-0.001213	-0.217166	-0.898874	0.380612
11249		9.815732	0.125824	3.971668	-0.019612	0.008709	0.018697	1.000000	-0.000245	0.000109	0.000234	0.087559	0.370481	0.924704	-0.972113	0.234504	-0.001905	-0.217552	-0.898750	0.380682
11250		9.846843	0.123130	3.965221	-0.009345	-0.000988	0.008670	1.000000	-0.000117	-0.000012	0.000108	0.087166	0.370445	0.924756	-0.972130	0.234431	-0.002278	-0.217635	-0.898784	0.380555
11251		9.844009	0.165378	4.075787	-0.009758	-0.014507	-0.002266	1.000000	-0.000122	-0.000181	-0.000028	0.086961	0.370004	0.924951	-0.972097	0.234568	-0.002440	-0.217867	-0.898930	0.380078
11252		9.808535	0.111440	4.084630	-0.004811	-0.001363	-0.007272	1.000000	-0.000060	-0.000017	-0.000091	0.086957	0.369870	0.925005	-0.972105	0.234532	-0.002395	-0.217829	-0.898994	0.379947
11253		9.802928	0.069353	4.043681	0.016136	0.025221	-0.006507	1.000000	0.000202	0.000315	-0.000081	0.087087	0.370310	0.924817	-0.972213	0.234086	-0.002181	-0.217295	-0.898929	0.380406
11254		9.829955	0.089134	4.000660	0.010028	0.025989	0.001581	1.000000	0.000125	0.000325	0.000020	0.087010	0.370838	0.924613	-0.972315	0.233663	-0.002217	-0.216870	-0.898822	0.380902
11255		9.862508	0.090621	3.944911	-0.006437	0.008028	0.005243	1.000000	-0.000080	0.000100	0.000066	0.086757	0.370984	0.924578	-0.972334	0.233581	-0.002485	-0.216886	-0.898783	0.380985
11256		9.877498	0.146086	3.975777	-0.005236	-0.000489	0.003020	1.000000	-0.000065	-0.000006	0.000038	0.086513	0.370915	0.924628	-0.972354	0.233498	-0.002690	-0.216897	-0.898833	0.380861
11257		9.855536	0.128492	4.045685	-0.011686	0.002392	-0.007355	1.000000	-0.000146	0.000030	-0.000092	0.086533	0.370849	0.924653	-0.972310	0.233678	-0.002728	-0.217083	-0.898813	0.380801
11258		9.849539	0.057702	3.990339	-0.002774	0.008254	-0.011858	1.000000	-0.000035	0.000103	-0.000148	0.086717	0.370867	0.924628	-0.972295	0.233742	-0.002565	-0.217075	-0.898790	0.380862
11259		9.803426	0.036448	4.023917	-0.005046	0.004198	-0.005518	1.000000	-0.000063	0.000052	-0.000069	0.086686	0.370850	0.924638	-0.972290	0.233764	-0.002604	-0.217113	-0.898791	0.380838
11260		9.840020	0.046152	4.043104	-0.006635	0.002674	0.007562	1.000000	-0.000083	0.000033	0.000095	0.086353	0.370862	0.924664	-0.972300	0.233719	-0.002938	-0.217201	-0.898797	0.380772
11261		9.831144	0.093354	4.037000	-0.014950	0.009514	0.017479	1.000000	-0.000187	0.000119	0.000218	0.085827	0.371092	0.924621	-0.972287	0.233763	-0.003567	-0.217466	-0.898691	0.380871
11262		9.829766	0.138705	4.052159	-0.029827	0.009204	0.017669	1.000000	-0.000373	0.000115	0.000221	0.085257	0.371325	0.924580	-0.972201	0.234108	-0.004372	-0.218075	-0.898505	0.380962
11263		9.852891	0.078600	4.037167	-0.019833	0.006676	0.008667	1.000000	-0.000248	0.000083	0.000108	0.084937	0.371457	0.924557	-0.972153	0.234299	-0.004824	-0.218414	-0.898401	0.381013
11264		9.854798	0.084359	4.029199	-0.002199	0.015387	0.002027	1.000000	-0.000027	0.000192	0.000025	0.084843	0.371728	0.924456	-0.972182	0.234175	-0.004941	-0.218322	-0.898321	0.381256
11265		9.828054	0.109187	4.037608	-0.011237	0.018958	0.004437	1.000000	-0.000140	0.000237	0.000055	0.084624	0.372097	0.924328	-0.972159	0.234261	-0.005301	-0.218507	-0.898146	0.381561
11266		9.801245	0.068777	4.015182	-0.023196	0.017515	0.004120	1.000000	-0.000290	0.000219	0.000052	0.084459	0.372422	0.924213	-0.972068	0.234629	-0.005714	-0.218975	-0.897915	0.381836
11267		9.830362	0.051400	4.017272	-0.013119	0.015435	0.009068	1.000000	-0.000164	0.000193	0.000113	0.084157	0.372728	0.924117	-0.972045	0.234713	-0.006146	-0.219193	-0.897766	0.382061
11268		9.839015	0.099871	4.002033	-0.013521	0.016372	0.013924	1.000000	-0.000169	0.000205	0.000174	0.083724	0.373095	0.924008	-0.972034	0.234744	-0.006709	-0.219409	-0.897605	0.382314
11269		9.828634	0.129786	4.003687	-0.032278	0.014006	0.011850	1.000000	-0.000403	0.000175	0.000148	0.083339	0.373409	0.923916	-0.971919	0.235198	-0.007389	-0.220062	-0.897356	0.382524
11270		9.797611	0.099259	4.013757	-0.024594	0.008376	0.002219	1.000000	-0.000307	0.000105	0.000028	0.083170	0.373526	0.923884	-0.971821	0.235594	-0.007765	-0.220562	-0.897203	0.382595
11271		9.822146	0.083880	4.029966	-0.002550	0.008777	-0.004919	1.000000	-0.000032	0.000110	-0.000061	0.083202	0.373641	0.923834	-0.971846	0.235489	-0.007717	-0.220436	-0.897183	0.382715
11272		9.792405	0.090782	4.029697	-0.008665	0.016706	-0.005994	1.000000	-0.000108	0.000209	-0.000075	0.083255	0.373925	0.923715	-0.971832	0.235549	-0.007759	-0.220481	-0.897049	0.383003
11273		9.844229	0.005881	4.020980	-0.017188	0.024500	0.000180	1.000000	-0.000215	0.000306	0.000002	0.083227	0.374397	0.923526	-0.971771	0.235789	-0.008014	-0.220758	-0.896789	0.383453
11274		9.794298	0.040341	3.987583	-0.004689	0.019907	0.011013	1.000000	-0.000059	0.000249	0.000138	0.082896	0.374804	0.923391	-0.971788	0.235705	-0.008432	-0.220808	-0.896641	0.383769
11275		9.843414	0.112894	3.956714	-0.005008	0.010874	0.007838	1.000000	-0.000063	0.000136	0.000098	0.082632	0.375004	0.923333	-0.971805	0.235626	-0.008728	-0.220834	-0.896578	0.383901
11276		9.836386	0.154599	4.034031	-0.021068	-0.002307	-0.005759	1.000000	-0.000263	-0.000029	-0.000072	0.082618	0.374798	0.923418	-0.971690	0.236091	-0.008889	-0.221342	-0.896542	0.383693
11277		9.764594	0.067068	4.025605	-0.008449	0.002805	-0.014934	1.000000	-0.000106	0.000035	-0.000187	0.082842	0.374685	0.923444	-0.971643	0.236292	-0.008709	-0.221465	-0.896536	0.383635
11278		9.773789	0.011765	4.030625	0.015274	0.022124	-0.014567	1.000000	0.000191	0.000277	-0.000182	0.083171	0.375024	0.923277	-0.971739	0.235913	-0.008289	-0.220922	-0.896494	0.384047
11279		9.833666	0.058957	4.016633	0.010123	0.023606	0.000100	1.000000	0.000127	0.000295	0.000001	0.083150	0.375473	0.923096	-0.971829	0.235542	-0.008268	-0.220533	-0.896404	0.384481
11280		9.828549	0.087089	3.960850	-0.001722	0.010400	0.001761	1.000000	-0.000022	0.000130	0.000022	0.083010	0.375622	0.923048	-0.971850	0.235452	-0.008415	-0.220494	-0.896365	0.384593
11281		9.811401	0.130955	3.981372	0.003266	-0.000358	-0.009941	1.000000	0.000041	-0.000004	-0.000124	0.083081	0.375489	0.923096	-0.971888	0.235300	-0.008241	-0.220299	-0.896461	0.384482
11282		9.803663	0.074956	3.994329	0.002544	-0.004971	-0.024477	1.000000	0.000032	-0.000062	-0.000306	0.083472	0.375108	0.923215	-0.971857	0.235443	-0.007792	-0.220288	-0.896582	0.384205
11283		9.814808	-0.028220	3.983115	0.031223	0.003390	-0.026469	1.000000	0.000390	0.000042	-0.000331	0.084009	0.374928	0.923240	-0.971996	0.234895	-0.006946	-0.219469	-0.896802	0.384161
11284		9.796480	-0.005021	3.990901	0.040384	0.008695	-0.013192	1.000000	0.000505	0.000109	-0.000165	0.084198	0.374979	0.923202	-0.972229	0.233945	-0.006353	-0.218361	-0.897029	0.384263
11285		9.762254	0.063865	3.970715	0.000668	0.003356	0.003667	1.000000	0.000008	0.000042	0.000046	0.083980	0.374976	0.923223	-0.972265	0.233789	-0.006515	-0.218282	-0.897071	0.384210
11286		9.797951	0.032764	3.957651	-0.008690	-0.007611	0.005868	1.000000	-0.000109	-0.000095	0.000073	0.083644	0.374751	0.923345	-0.972260	0.233801	-0.006816	-0.218434	-0.897162	0.383911
11287		9.834782	0.082139	3.968748	0.011476	-0.010710	0.003382	1.000000	0.000143	-0.000134	0.000042	0.083378	0.374419	0.923503	-0.972347	0.233438	-0.006856	-0.218148	-0.897395	0.383529
11288		9.858823	0.132484	3.974729	0.005575	-0.012888	-0.003447	1.000000	0.000070	-0.000161	-0.000043	0.083227	0.374018	0.923679	-0.972397	0.233232	-0.006824	-0.217984	-0.897615	0.383105
11289		9.824900	0.107377	3.994508	-0.006732	-0.014801	-0.007530	1.000000	-0.000084	-0.000185	-0.000094	0.083169	0.373548	0.923875	-0.972371	0.233340	-0.006811	-0.218121	-0.897783	0.382634
11290		9.804751	0.094306	4.036096	-0.012775	-0.020216	-0.004284	1.000000	-0.000160	-0.000253	-0.000054	0.083019	0.372963	0.924125	-0.972312	0.233586	-0.006924	-0.218445	-0.897962	0.382028
11291		9.819214	0.091168	4.059750	-0.006220	-0.015222	-0.003876	1.000000	-0.000078	-0.000190	-0.000048	0.082890	0.372514	0.924318	-0.972297	0.233646	-0.006971	-0.218560	-0.898133	0.381561
11292		9.843203	0.073381	4.057936	0.001653	-0.009545	-0.003245	1.000000	0.000021	-0.000119	-0.000041	0.082771	0.372150	0.924474	-0.972305	0.233611	-0.006987	-0.218568	-0.898293	0.381180
11293		9.868468	0.091635	4.023115	0.006840	-0.005316	0.002381	1.000000	0.000085	-0.000066	0.000030	0.082545	0.371937	0.924581	-0.972366	0.233355	-0.007062	-0.218382	-0.898448	0.380921
11294		9.944584	0.160460	4.043539	-0.003880	-0.000575	0.000875	1.000000	-0.000049	-0.000007	0.000011	0.082367	0.371823	0.924642	-0.972365	0.233354	-0.007219	-0.218453	-0.898495	0.380768
11295		9.881582	0.148487	4.016247	-0.009267	0.000835	-0.008418	1.000000	-0.000116	0.000010	-0.000105	0.082454	0.371689	0.924689	-0.972319	0.233548	-0.007176	-0.218627	-0.898500	0.380657
11296		9.798030	0.153580	4.047109	-0.004322	-0.006017	-0.020769	1.000000	-0.000054	-0.000075	-0.000260	0.082804	0.371335	0.924799	-0.972278	0.233729	-0.006795	-0.218676	-0.898600	0.380394
11297		9.825844	0.064651	4.070454	0.000478	-0.004470	-0.022790	1.000000	0.000006	-0.000056	-0.000285	0.083198	0.370993	0.924901	-0.972254	0.233844	-0.006341	-0.218635	-0.898711	0.380154
11298		9.886369	0.029605	4.050128	0.001032	0.019009	-0.013985	1.000000	0.000013	0.000238	-0.000175	0.083530	0.371236	0.924774	-0.972253	0.233855	-0.006059	-0.218513	-0.898607	0.380469
11299		9.885524	0.047844	3.961474	-0.001320	0.026487	-0.001957	1.000000	-0.000016	0.000331	-0.000024	0.083595	0.371739	0.924566	-0.972273	0.233769	-0.006083	-0.218396	-0.898422	0.380974
11300		9.850893	0.122033	3.896750	-0.009637	0.005663	-0.005825	1.000000	-0.000120	0.000071	-0.000073	0.083602	0.371735	0.924567	-0.972231	0.233944	-0.006148	-0.218582	-0.898378	0.380970
11301		9.859997	0.100791	4.004605	-0.017717	-0.018087	-0.024585	1.000000	-0.000221	-0.000226	-0.000307	0.083939	0.371078	0.924800	-0.972099	0.234500	-0.005861	-0.219040	-0.898505	0.380408
11302		9.824214	0.039193	4.081855	-0.009283	-0.011894	-0.028828	1.000000	-0.000116	-0.000149	-0.000360	0.084438	0.370503	0.924985	-0.971986	0.234978	-0.005392	-0.219349	-0.898617	0.379964
11303		9.790330	-0.012606	4.064277	0.009827	0.021214	-0.023888	1.000000	0.000123	0.000265	-0.000299	0.085000	0.370754	0.924833	-0.972015	0.234869	-0.004820	-0.219002	-0.898542	0.380343
11304		9.787894	-0.022126	3.986960	0.028256	0.030584	-0.011423	1.000000	0.000353	0.000382	-0.000143	0.085291	0.371273	0.924598	-0.972168	0.234245	-0.004382	-0.218209	-0.898491	0.380919
11305		9.861697	0.047298	3.948276	0.013687	0.013587	-0.003231	1.000000	0.000171	0.000170	-0.000040	0.085328	0.371438	0.924528	-0.972248	0.233915	-0.004245	-0.217838	-0.898508	0.381090
11306		9.879789	0.061847	3.956457	-0.005228	-0.001162	-0.003212	1.000000	-0.000065	-0.000015	-0.000040	0.085277	0.371290	0.924593	-0.972234	0.233971	-0.004285	-0.217918	-0.898555	0.380933
11307		9.830387	0.070108	3.992781	-0.015093	-0.004760	-0.004495	1.000000	-0.000189	-0.000059	-0.000056	0.085246	0.371022	0.924703	-0.972145	0.234340	-0.004406	-0.218330	-0.898570	0.380663
11308		9.761069	0.032940	4.032889	-0.016930	-0.002705	-0.008308	1.000000	-0.000212	-0.000034	-0.000104	0.085325	0.370774	0.924795	-0.972038	0.234783	-0.004447	-0.218775	-0.898556	0.380439
11309		9.764145	-0.027020	4.014842	-0.006019	0.005451	0.001144	1.000000	-0.000075	0.000068	0.000014	0.085225	0.370812	0.924789	-0.972031	0.234808	-0.004572	-0.218843	-0.898534	0.380452
11310		9.841574	0.035859	4.009258	-0.000398	0.010680	0.018988	1.000000	-0.000005	0.000134	0.000237	0.084714	0.371033	0.924748	-0.972077	0.234605	-0.005080	-0.218835	-0.898496	0.380547
11311		9.877981	0.108675	3.949569	-0.007383	0.012743	0.026670	1.000000	-0.000092	0.000159	0.000333	0.084002	0.371361	0.924681	-0.972107	0.234463	-0.005852	-0.218977	-0.898397	0.380699
11312		9.838598	0.171553	3.921974	-0.013561	-0.000809	0.016620	1.000000	-0.000170	-0.000010	0.000208	0.083444	0.371349	0.924736	-0.972095	0.234499	-0.006451	-0.219245	-0.898393	0.380554
11313		9.840265	0.203357	3.974821	-0.021926	-0.015926	0.002043	1.000000	-0.000274	-0.000199	0.000026	0.083186	0.370894	0.924942	-0.971997	0.234896	-0.006774	-0.219778	-0.898477	0.380048
11314		9.858261	0.107484	4.028210	-0.015670	-0.010451	-0.009799	1.000000	-0.000196	-0.000131	-0.000122	0.083232	0.370483	0.925103	-0.971900	0.235296	-0.006789	-0.220188	-0.898542	0.379656
11315		9.820974	0.082682	4.014406	0.009920	0.006853	-0.007187	1.000000	0.000124	0.000086	-0.000090	0.083326	0.370483	0.925094	-0.971955	0.235076	-0.006597	-0.219911	-0.898600	0.379681
11316		9.811562	0.124640	3.990463	0.014029	0.007181	-0.003515	1.000000	0.000175	0.000090	-0.000044	0.083331	0.370513	0.925082	-0.972040	0.234728	-0.006452	-0.219533	-0.898678	0.379713
11317		9.836362	0.167971	3.994675	-0.013369	-0.002680	-0.009056	1.000000	-0.000167	-0.000034	-0.000113	0.083416	0.370282	0.925167	-0.971958	0.235067	-0.006447	-0.219863	-0.898685	0.379507
11318		9.882795	0.076462	4.006517	-0.018308	-0.006332	-0.013218	1.000000	-0.000229	-0.000079	-0.000165	0.083571	0.369940	0.925289	-0.971840	0.235555	-0.006403	-0.220325	-0.898698	0.379208
11319		9.859081	0.058296	3.973278	0.009562	0.000367	-0.018021	1.000000	0.000120	0.000005	-0.000225	0.083878	0.369734	0.925344	-0.971875	0.235423	-0.005971	-0.220055	-0.898817	0.379082
11320		9.817234	0.076172	4.007604	0.009188	0.002874	-0.015478	1.000000	0.000115	0.000036	-0.000193	0.084145	0.369592	0.925376	-0.971904	0.235309	-0.005606	-0.219822	-0.898905	0.379008
11321		9.808915	0.063179	3.992453	-0.001486	-0.002671	-0.010262	1.000000	-0.000019	-0.000033	-0.000128	0.084258	0.369365	0.925457	-0.971895	0.235353	-0.005448	-0.219821	-0.898987	0.378814
11322		9.840697	0.075132	4.026068	-0.002565	-0.005934	-0.006002	1.000000	-0.000032	-0.000074	-0.000075	0.084224	0.369082	0.925573	-0.971881	0.235410	-0.005434	-0.219895	-0.899089	0.378531
11323		9.845357	0.060632	4.015568	-0.007090	0.007871	-0.006852	1.000000	-0.000089	0.000098	-0.000086	0.084305	0.369069	0.925570	-0.971823	0.235650	-0.005447	-0.220121	-0.899031	0.378536
11324		9.874778	0.030524	4.020958	-0.015229	0.008363	0.000512	1.000000	-0.000190	0.000105	0.000006	0.084190	0.369154	0.925547	-0.971758	0.235910	-0.005699	-0.220449	-0.898928	0.378590
11325		9.860386	0.070136	3.989354	-0.018448	0.003955	0.014176	1.000000	-0.000231	0.000049	0.000177	0.083776	0.369207	0.925564	-0.971694	0.236162	-0.006253	-0.220892	-0.898840	0.378540
11326		9.857584	0.142028	4.003164	-0.011052	0.000126	0.004733	1.000000	-0.000138	0.000002	0.000059	0.083551	0.369129	0.925615	-0.971655	0.236311	-0.006532	-0.221144	-0.898833	0.378410
11327		9.864243	0.121999	4.052323	-0.002695	-0.001150	-0.008162	1.000000	-0.000034	-0.000014	-0.000102	0.083576	0.368945	0.925686	-0.971643	0.236365	-0.006481	-0.221191	-0.898894	0.378237
11328		9.803687	0.067507	4.091493	-0.001739	0.013762	-0.010544	1.000000	-0.000022	0.000172	-0.000132	0.083754	0.369087	0.925613	-0.971630	0.236419	-0.006354	-0.221178	-0.898822	0.378417
11329		9.788173	0.048716	4.032683	0.006928	0.033457	-0.002177	1.000000	0.000087	0.000418	-0.000027	0.083852	0.369731	0.925347	-0.971691	0.236172	-0.006313	-0.220875	-0.898622	0.379068
11330		9.857424	0.094299	3.989829	0.006925	0.036308	0.007960	1.000000	0.000087	0.000454	0.000100	0.083721	0.370490	0.925056	-0.971766	0.235856	-0.006513	-0.220593	-0.898393	0.379776
11331		9.866680	0.117736	3.913330	-0.004805	0.027690	0.008128	1.000000	-0.000060	0.000346	0.000102	0.083566	0.371036	0.924851	-0.971766	0.235850	-0.006814	-0.220654	-0.898169	0.380269
11332		9.871485	0.160111	3.910576	-0.017894	0.016286	0.000288	1.000000	-0.000224	0.000204	0.000004	0.083501	0.371304	0.924749	-0.971693	0.236141	-0.007075	-0.220999	-0.897982	0.380511
11333		9.819458	0.135227	3.960256	-0.025879	0.001635	-0.010585	1.000000	-0.000323	0.000020	-0.000132	0.083643	0.371170	0.924790	-0.971546	0.236741	-0.007146	-0.221588	-0.897879	0.380410
11334		9.800156	0.051208	3.970122	-0.009760	0.006721	-0.015007	1.000000	-0.000122	0.000084	-0.000188	0.083945	0.371112	0.924786	-0.971473	0.237047	-0.006942	-0.221794	-0.897822	0.380425
11335		9.797829	0.026859	3.960744	0.015485	0.023483	-0.012201	1.000000	0.000194	0.000294	-0.000153	0.084230	0.371481	0.924612	-0.971561	0.236696	-0.006591	-0.221301	-0.897762	0.380854
11336		9.840494	0.037397	3.940517	0.006563	0.024431	-0.003733	1.000000	0.000082	0.000305	-0.000047	0.084314	0.371889	0.924440	-0.971603	0.236527	-0.006536	-0.221085	-0.897638	0.381272
11337		9.832095	0.052860	3.918528	-0.003494	0.005980	0.006273	1.000000	-0.000044	0.000075	0.000078	0.084049	0.371944	0.924442	-0.971609	0.236493	-0.006815	-0.221159	-0.897624	0.381261
11338		9.833607	0.106699	3.944896	-0.011527	-0.004222	0.004798	1.000000	-0.000144	-0.000053	0.000060	0.083811	0.371735	0.924548	-0.971552	0.236718	-0.007105	-0.221499	-0.897651	0.380999
11339		9.826643	0.080335	4.012862	-0.011072	0.001069	-0.002219	1.000000	-0.000138	0.000013	-0.000028	0.083741	0.371645	0.924591	-0.971506	0.236903	-0.007235	-0.221727	-0.897640	0.380894
11340		9.855225	0.011883	3.986675	0.009868	0.013107	-0.007733	1.000000	0.000123	0.000164	-0.000097	0.083874	0.371757	0.924533	-0.971548	0.236738	-0.007054	-0.221495	-0.897637	0.381036
11341		9.825406	0.019918	3.986387	0.016499	0.013984	0.001067	1.000000	0.000206	0.000175	0.000013	0.083806	0.371956	0.924459	-0.971652	0.236313	-0.006996	-0.221064	-0.897666	0.381216
11342		9.792652	0.073273	3.984865	-0.006470	0.000986	0.005093	1.000000	-0.000081	0.000012	0.000064	0.083569	0.371892	0.924506	-0.971641	0.236350	-0.007245	-0.221202	-0.897683	0.381098
11343		9.825706	0.056992	4.019329	-0.016539	-0.003319	0.006174	1.000000	-0.000207	-0.000041	0.000077	0.083250	0.371747	0.924594	-0.971576	0.236604	-0.007650	-0.221607	-0.897676	0.380878
11344		9.829950	0.035462	4.032336	0.002887	0.005010	0.002765	1.000000	0.000036	0.000063	0.000035	0.083121	0.371745	0.924606	-0.971602	0.236494	-0.007738	-0.221540	-0.897706	0.380846
11345		9.843194	0.057080	4.010375	0.017696	0.013950	0.002110	1.000000	0.000221	0.000174	0.000026	0.082999	0.371947	0.924536	-0.971714	0.236033	-0.007723	-0.221094	-0.897744	0.381017
11346		9.843095	0.077780	3.984731	0.009009	0.011794	0.004976	1.000000	0.000113	0.000147	0.000062	0.082830	0.372104	0.924488	-0.971773	0.235786	-0.007836	-0.220897	-0.897744	0.381131
11347		9.837350	0.080369	3.979107	-0.005164	0.003994	0.005386	1.000000	-0.000065	0.000050	0.000067	0.082557	0.372129	0.924502	-0.971779	0.235755	-0.008116	-0.220976	-0.897741	0.381091
11348		9.830925	0.062625	4.000996	-0.004406	0.001310	0.000358	1.000000	-0.000055	0.000016	0.000004	0.082447	0.372040	0.924548	-0.971765	0.235808	-0.008232	-0.221078	-0.897764	0.380977
11349		9.788470	0.063645	4.017454	0.002948	0.007425	-0.002608	1.000000	0.000037	0.000093	-0.000033	0.082450	0.372060	0.924539	-0.971781	0.235742	-0.008206	-0.221006	-0.897773	0.380998
11350		9.830031	0.018551	4.033197	-0.004146	0.012650	0.003630	1.000000	-0.000052	0.000158	0.000045	0.082319	0.372271	0.924466	-0.971791	0.235694	-0.008378	-0.221010	-0.897699	0.381172
11351		9.853145	0.021627	3.985843	-0.003006	0.016949	0.017945	1.000000	-0.000038	0.000212	0.000224	0.081854	0.372659	0.924351	-0.971830	0.235514	-0.008891	-0.221011	-0.897585	0.381439
11352		9.815027	0.123014	3.925870	0.000835	0.009105	0.015342	1.000000	0.000010	0.000114	0.000192	0.081373	0.372870	0.924309	-0.971895	0.235229	-0.009330	-0.220903	-0.897572	0.381532
11353		9.814187	0.125071	3.990900	-0.008243	-0.012256	-0.006100	1.000000	-0.000103	-0.000153	-0.000076	0.081348	0.372459	0.924477	-0.971856	0.235389	-0.009318	-0.221083	-0.897701	0.381125
11354		9.805980	0.052884	4.072111	-0.013860	-0.010804	-0.010634	1.000000	-0.000173	-0.000135	-0.000133	0.081393	0.372071	0.924629	-0.971787	0.235677	-0.009292	-0.221371	-0.897786	0.380756
11355		9.774993	-0.012169	4.048154	0.010939	0.016043	0.001189	1.000000	0.000137	0.000201	0.000015	0.081377	0.372310	0.924534	-0.971852	0.235410	-0.009257	-0.221091	-0.897757	0.380987
11356		9.827238	0.081649	3.962246	0.031663	0.031051	0.005167	1.000000	0.000396	0.000388	0.000065	0.081373	0.372891	0.924300	-0.972028	0.234688	-0.009106	-0.220317	-0.897705	0.381557
11357		9.865012	0.142665	3.882785	0.012779	0.020306	-0.001016	1.000000	0.000160	0.000254	-0.000013	0.081392	0.373220	0.924166	-0.972105	0.234373	-0.009036	-0.219972	-0.897651	0.381885
11358		9.860418	0.107719	3.882097	-0.011677	-0.006076	-0.009126	1.000000	-0.000146	-0.000076	-0.000114	0.081494	0.372881	0.924293	-0.972014	0.234750	-0.009002	-0.220334	-0.897693	0.381577
11359		9.833431	0.090314	3.963744	-0.020757	-0.022491	-0.012660	1.000000	-0.000259	-0.000281	-0.000158	0.081572	0.372189	0.924566	-0.971884	0.235289	-0.008970	-0.220878	-0.897839	0.380917
11360		9.819726	0.062539	4.030880	-0.011742	-0.012076	-0.014656	1.000000	-0.000147	-0.000151	-0.000183	0.081793	0.371685	0.924749	-0.971781	0.235723	-0.008791	-0.221252	-0.897934	0.380476
11361		9.780584	0.052394	3.998929	0.013813	0.011680	-0.021774	1.000000	0.000173	0.000146	-0.000272	0.082291	0.371685	0.924705	-0.971812	0.235615	-0.008222	-0.220930	-0.897962	0.380596
11362		9.812590	0.025794	3.976547	0.022787	0.012716	-0.018588	1.000000	0.000285	0.000159	-0.000232	0.082718	0.371722	0.924652	-0.971897	0.235280	-0.007641	-0.220393	-0.898035	0.380737
11363		9.867907	0.046185	3.961447	0.007919	-0.005072	-0.002708	1.000000	0.000099	-0.000063	-0.000034	0.082650	0.371468	0.924760	-0.971943	0.235094	-0.007568	-0.220217	-0.898188	0.380477
11364		9.857024	0.101125	3.981353	-0.015484	-0.008489	0.000158	1.000000	-0.000194	-0.000106	0.000002	0.082511	0.371145	0.924902	-0.971857	0.235445	-0.007779	-0.220650	-0.898230	0.380126
11365		9.833104	0.094363	4.030592	-0.020193	-0.005963	-0.009365	1.000000	-0.000252	-0.000075	-0.000117	0.082620	0.370828	0.925019	-0.971729	0.235972	-0.007806	-0.221173	-0.898223	0.379841
11366		9.836838	0.025573	3.992940	0.008513	-0.000440	-0.017517	1.000000	0.000106	-0.000006	-0.000219	0.082957	0.370589	0.925085	-0.971743	0.235928	-0.007372	-0.220985	-0.898333	0.379689
11367		9.844347	0.035572	3.991186	0.024030	0.010997	-0.012981	1.000000	0.000300	0.000137	-0.000162	0.083230	0.370620	0.925048	-0.971846	0.235516	-0.006919	-0.220428	-0.898428	0.379787
11368		9.828684	0.073735	4.007261	-0.004431	0.006896	-0.006444	1.000000	-0.000055	0.000086	-0.000081	0.083310	0.370641	0.925032	-0.971828	0.235593	-0.006873	-0.220478	-0.898399	0.379826
11369		9.825294	0.041813	3.981708	-0.020668	-0.003454	-0.005239	1.000000	-0.000258	-0.000043	-0.000065	0.083287	0.370409	0.925127	-0.971711	0.236067	-0.007037	-0.220999	-0.898371	0.379592
11370		9.813502	0.009418	4.022856	-0.002896	-0.007119	-0.010535	1.000000	-0.000036	-0.000089	-0.000132	0.083368	0.370067	0.925257	-0.971683	0.236186	-0.006914	-0.221091	-0.898480	0.379279
11371		9.853825	0.034854	4.007387	0.004702	0.004858	-0.007270	1.000000	0.000059	0.000061	-0.000091	0.083471	0.370019	0.925267	-0.971704	0.236105	-0.006760	-0.220961	-0.898521	0.379257
11372		9.855525	0.020300	3.963274	-0.002906	0.020402	0.000205	1.000000	-0.000036	0.000255	0.000003	0.083463	0.370351	0.925135	-0.971693	0.236149	-0.006872	-0.221014	-0.898373	0.379577
11373		9.824252	0.053565	3.939992	0.000919	0.010886	0.003749	1.000000	0.000011	0.000136	0.000047	0.083313	0.370503	0.925087	-0.971717	0.236045	-0.007025	-0.220965	-0.898338	0.379689
11374		9.837578	0.093652	3.976922	-0.010017	-0.002741	-0.001238	1.000000	-0.000125	-0.000034	-0.000015	0.083224	0.370303	0.925175	-0.971663	0.236261	-0.007159	-0.221234	-0.898363	0.379473
11375		9.825270	0.048229	4.000856	-0.015842	0.001163	-0.006391	1.000000	-0.000198	0.000015	-0.000080	0.083327	0.370177	0.925217	-0.971568	0.236652	-0.007182	-0.221613	-0.898312	0.379371
11376		9.814972	-0.016296	4.002088	-0.001292	0.005529	-0.002397	1.000000	-0.000016	0.000069	-0.000030	0.083348	0.370124	0.925236	-0.971539	0.236770	-0.007196	-0.221732	-0.898303	0.379324
11377		9.889045	0.028360	3.989833	0.001459	0.011090	0.012020	1.000000	0.000018	0.000139	0.000150	0.082991	0.370321	0.925189	-0.971581	0.236587	-0.007545	-0.221682	-0.898270	0.379431
11378		9.857239	0.113512	3.956299	-0.016885	0.020442	0.020024	1.000000	-0.000211	0.000256	0.000250	0.082520	0.370758	0.925056	-0.971526	0.236792	-0.008240	-0.222101	-0.898036	0.379741
11379		9.813495	0.141594	3.927420	-0.020919	0.001860	0.004262	1.000000	-0.000261	0.000023	0.000053	0.082277	0.370688	0.925106	-0.971422	0.237201	-0.008649	-0.222642	-0.897957	0.379611
11380		9.843921	0.082733	4.041601	-0.005515	-0.016174	-0.011994	1.000000	-0.000069	-0.000202	-0.000150	0.082362	0.370121	0.925325	-0.971366	0.237435	-0.008512	-0.222855	-0.898129	0.379079
11381		9.834105	0.051883	4.118813	0.004328	0.002832	-0.008701	1.000000	0.000054	0.000035	-0.000109	0.082488	0.369984	0.925369	-0.971366	0.237443	-0.008347	-0.222810	-0.898183	0.378976
11382		9.796094	0.023725	4.044365	0.013142	0.036268	-0.000726	1.000000	0.000164	0.000453	-0.000009	0.082585	0.370671	0.925085	-0.971443	0.237126	-0.008290	-0.222435	-0.897983	0.379669
11383		9.835633	0.081336	3.939285	0.023414	0.040317	0.002776	1.000000	0.000293	0.000504	0.000035	0.082626	0.371462	0.924764	-0.971582	0.236560	-0.008212	-0.221813	-0.897806	0.380452
11384		9.894176	0.099805	3.914396	0.011095	0.016011	-0.001931	1.000000	0.000139	0.000200	-0.000024	0.082639	0.371706	0.924665	-0.971660	0.236241	-0.008127	-0.221465	-0.897789	0.380695
11385		9.844837	0.116638	3.904993	-0.015015	-0.006375	-0.003874	1.000000	-0.000188	-0.000080	-0.000048	0.082538	0.371417	0.924790	-0.971581	0.236561	-0.008294	-0.221850	-0.897824	0.380387
11386		9.802741	0.076031	4.012335	-0.029601	-0.009153	-0.008596	1.000000	-0.000370	-0.000114	-0.000107	0.082570	0.371018	0.924947	-0.971398	0.237306	-0.008472	-0.222639	-0.897792	0.380001
11387		9.796045	0.008201	3.983375	-0.007545	0.005939	-0.010540	1.000000	-0.000094	0.000074	-0.000132	0.082762	0.370982	0.924945	-0.971350	0.237506	-0.008346	-0.222777	-0.897754	0.380010
11388		9.804999	0.007023	3.978872	0.012929	0.025660	-0.003206	1.000000	0.000162	0.000321	-0.000040	0.082867	0.371413	0.924762	-0.971420	0.237224	-0.008229	-0.222432	-0.897651	0.380456
11389		9.824069	0.048577	3.915227	-0.006377	0.016957	0.010091	1.000000	-0.000080	0.000212	0.000126	0.082625	0.371693	0.924672	-0.971394	0.237318	-0.008596	-0.222636	-0.897510	0.380669
11390		9.848526	0.098029	3.938527	-0.022740	-0.010335	0.013148	1.000000	-0.000284	-0.000129	0.000164	0.082166	0.371390	0.924834	-0.971285	0.237742	-0.009178	-0.223281	-0.897523	0.380260
11391		9.841590	0.124887	3.993726	-0.023068	-0.012891	0.001652	1.000000	-0.000288	-0.000161	0.000021	0.081965	0.370985	0.925014	-0.971162	0.238231	-0.009490	-0.223888	-0.897561	0.379813
11392		9.858156	0.072628	4.020102	-0.016027	0.001308	-0.007086	1.000000	-0.000200	0.000016	-0.000089	0.082006	0.370835	0.925071	-0.971060	0.238644	-0.009583	-0.224317	-0.897513	0.379673
11393		9.835193	0.023552	4.012114	0.000413	0.011407	-0.003708	1.000000	0.000005	0.000143	-0.000046	0.082037	0.370959	0.925019	-0.971071	0.238600	-0.009564	-0.224257	-0.897474	0.379801
11394		9.842495	0.088983	3.977537	0.001607	0.005895	0.000260	1.000000	0.000020	0.000074	0.000003	0.081980	0.370932	0.925034	-0.971065	0.238620	-0.009626	-0.224302	-0.897480	0.379761
11395		9.842844	0.105182	3.973072	-0.011514	-0.000122	-0.005174	1.000000	-0.000144	-0.000002	-0.000065	0.081944	0.370776	0.925100	-0.971003	0.238870	-0.009728	-0.224585	-0.897478	0.379599
11396		9.832319	0.060901	4.033127	-0.009163	-0.003001	-0.011644	1.000000	-0.000115	-0.000038	-0.000146	0.082031	0.370530	0.925191	-0.970951	0.239084	-0.009663	-0.224779	-0.897522	0.379379
11397		9.845290	0.086805	4.074315	-0.009954	0.001991	-0.006540	1.000000	-0.000124	0.000025	-0.000082	0.082059	0.370417	0.925234	-0.970894	0.239313	-0.009700	-0.225013	-0.897508	0.379274
11398		9.852364	0.079322	4.055428	-0.015405	0.017702	-0.001477	1.000000	-0.000193	0.000221	-0.000018	0.082100	0.370670	0.925129	-0.970802	0.239677	-0.009878	-0.225394	-0.897306	0.379525
11399		9.844058	0.098915	4.011651	-0.006268	0.026529	-0.004298	1.000000	-0.000078	0.000332	-0.000054	0.082183	0.371115	0.924943	-0.970773	0.239793	-0.009957	-0.225490	-0.897091	0.379975
11400		9.867237	0.135409	3.979661	0.002152	0.019089	-0.014994	1.000000	0.000027	0.000239	-0.000187	0.082539	0.371334	0.924823	-0.970765	0.239839	-0.009661	-0.225396	-0.896988	0.380274
11401		9.844408	0.106726	3.967714	-0.002074	0.004362	-0.024429	1.000000	-0.000026	0.000055	-0.000305	0.083071	0.371140	0.924854	-0.970696	0.240136	-0.009176	-0.225496	-0.896990	0.380212
11402		9.817084	0.058509	4.035161	-0.001666	0.005026	-0.029969	1.000000	-0.000021	0.000063	-0.000375	0.083756	0.370930	0.924876	-0.970618	0.240472	-0.008545	-0.225577	-0.896986	0.380172
11403		9.792656	-0.027686	4.020146	0.007285	0.016936	-0.028759	1.000000	0.000091	0.000212	-0.000359	0.084428	0.371008	0.924784	-0.970606	0.240544	-0.007891	-0.225379	-0.896935	0.380411
11404		9.817186	-0.027415	3.993001	0.005224	0.027833	-0.013708	1.000000	0.000065	0.000348	-0.000171	0.084806	0.371421	0.924583	-0.970611	0.240534	-0.007599	-0.225216	-0.896766	0.380904
11405		9.840803	0.000838	3.920217	-0.008872	0.026474	0.000645	1.000000	-0.000111	0.000331	0.000008	0.084825	0.371883	0.924396	-0.970563	0.240722	-0.007781	-0.225416	-0.896524	0.381355
11406		9.822943	0.049980	3.896994	-0.018266	0.010111	0.003342	1.000000	-0.000228	0.000126	0.000042	0.084723	0.372002	0.924358	-0.970466	0.241101	-0.008081	-0.225870	-0.896373	0.381442
11407		9.837341	0.072793	3.974803	-0.021101	-0.010882	-0.006094	1.000000	-0.000264	-0.000136	-0.000076	0.084735	0.371586	0.924523	-0.970329	0.241651	-0.008192	-0.226456	-0.896397	0.381037
11408		9.783681	0.039854	4.029442	-0.015517	-0.009765	-0.009170	1.000000	-0.000194	-0.000122	-0.000115	0.084800	0.371139	0.924697	-0.970205	0.242147	-0.008216	-0.226962	-0.896449	0.380615
11409		9.786939	0.005904	4.048435	0.007090	0.018835	-0.010112	1.000000	0.000089	0.000235	-0.000126	0.085058	0.371355	0.924587	-0.970220	0.242094	-0.007980	-0.226801	-0.896374	0.380888
11410		9.839157	0.028935	3.979312	0.011768	0.033135	0.002981	1.000000	0.000147	0.000414	0.000037	0.085097	0.371989	0.924328	-0.970292	0.241804	-0.007983	-0.226476	-0.896189	0.381515
11411		9.852931	0.085926	3.927742	-0.002936	0.017807	0.007921	1.000000	-0.000037	0.000223	0.000099	0.084939	0.372306	0.924215	-0.970292	0.241797	-0.008231	-0.226537	-0.896059	0.381783
11412		9.850792	0.147384	3.960898	-0.017399	-0.007315	0.000913	1.000000	-0.000217	-0.000091	0.000011	0.084758	0.372008	0.924352	-0.970197	0.242168	-0.008499	-0.227010	-0.896083	0.381447
11413		9.857406	0.138635	4.026428	-0.021868	-0.010189	-0.012686	1.000000	-0.000273	-0.000127	-0.000159	0.084920	0.371548	0.924522	-0.970036	0.242814	-0.008482	-0.227639	-0.896099	0.381035
11414		9.815609	0.059221	4.037803	0.010147	0.007341	-0.025574	1.000000	0.000127	0.000092	-0.000320	0.085475	0.371422	0.924521	-0.970037	0.242830	-0.007873	-0.227426	-0.896147	0.381049
11415		9.811167	0.035551	4.015492	0.034435	0.024765	-0.023675	1.000000	0.000430	0.000310	-0.000296	0.086084	0.371703	0.924352	-0.970186	0.242260	-0.007066	-0.226560	-0.896185	0.381476
11416		9.783849	0.056130	4.005790	0.008024	0.014441	-0.012152	1.000000	0.000100	0.000181	-0.000152	0.086301	0.371830	0.924281	-0.970218	0.242136	-0.006819	-0.226337	-0.896166	0.381653
11417		9.822390	0.038191	3.984787	-0.005067	-0.000360	-0.007887	1.000000	-0.000063	-0.000005	-0.000099	0.086355	0.371635	0.924354	-0.970175	0.242310	-0.006785	-0.226502	-0.896200	0.381475
11418		9.843210	0.047221	3.986937	0.016376	0.003770	-0.014422	1.000000	0.000205	0.000047	-0.000180	0.086587	0.371520	0.924378	-0.970256	0.241999	-0.006379	-0.226068	-0.896331	0.381423
11419		9.813010	0.067366	4.026596	0.026516	0.010635	-0.024599	1.000000	0.000331	0.000133	-0.000307	0.087156	0.371474	0.924343	-0.970348	0.241646	-0.005619	-0.225452	-0.896445	0.381520
11420		9.808466	-0.001862	3.994606	0.014222	0.007442	-0.014172	1.000000	0.000178	0.000093	-0.000177	0.087415	0.371420	0.924341	-0.970401	0.241442	-0.005246	-0.225123	-0.896523	0.381532
11421		9.813111	0.013310	3.999073	0.004963	0.009124	-0.000268	1.000000	0.000062	0.000114	-0.000003	0.087385	0.371477	0.924321	-0.970422	0.241358	-0.005256	-0.225045	-0.896522	0.381580
11422		9.805733	0.028425	3.974999	-0.000438	0.004703	0.006467	1.000000	-0.000005	0.000059	0.000081	0.087171	0.371493	0.924334	-0.970432	0.241312	-0.005466	-0.225084	-0.896527	0.381544
11423		9.800247	0.041904	3.986618	-0.013592	0.002435	0.004203	1.000000	-0.000170	0.000030	0.000053	0.086983	0.371456	0.924367	-0.970373	0.241544	-0.005753	-0.225412	-0.896480	0.381461
11424		9.820017	0.001522	3.981148	-0.005219	0.003953	0.005367	1.000000	-0.000065	0.000049	0.000067	0.086807	0.371437	0.924391	-0.970347	0.241641	-0.005973	-0.225589	-0.896462	0.381399
11425		9.858866	0.019689	3.991442	0.016601	0.007576	0.007901	1.000000	0.000208	0.000095	0.000099	0.086574	0.371525	0.924378	-0.970460	0.241187	-0.006048	-0.225195	-0.896548	0.381431
11426		9.850532	0.078640	3.939792	0.009084	0.013874	0.009685	1.000000	0.000114	0.000173	0.000121	0.086289	0.371764	0.924308	-0.970537	0.240872	-0.006276	-0.224973	-0.896533	0.381595
11427		9.821202	0.092795	3.955791	-0.020237	-0.000479	0.013030	1.000000	-0.000253	-0.000006	0.000163	0.085841	0.371686	0.924381	-0.970452	0.241196	-0.006864	-0.225508	-0.896479	0.381408
11428		9.841483	0.084698	4.002485	-0.020705	-0.017104	0.013506	1.000000	-0.000259	-0.000214	0.000169	0.085319	0.371238	0.924610	-0.970357	0.241563	-0.007449	-0.226117	-0.896566	0.380843
11429		9.865177	0.088223	4.037956	0.006642	-0.005709	-0.002942	1.000000	0.000083	-0.000071	-0.000037	0.085243	0.370962	0.924727	-0.970391	0.241428	-0.007398	-0.225999	-0.896716	0.380558
11430		9.804295	0.078621	4.046152	0.025906	0.009881	-0.012050	1.000000	0.000324	0.000124	-0.000151	0.085451	0.370992	0.924696	-0.970523	0.240909	-0.006968	-0.225353	-0.896843	0.380642
11431		9.797278	0.043188	4.033302	0.019767	0.012966	-0.009394	1.000000	0.000247	0.000162	-0.000117	0.085632	0.371102	0.924635	-0.970621	0.240520	-0.006642	-0.224859	-0.896902	0.380796
11432		9.874570	0.014981	4.009052	0.002766	0.008697	0.009862	1.000000	0.000035	0.000109	0.000123	0.085342	0.371222	0.924614	-0.970658	0.240364	-0.006912	-0.224810	-0.896894	0.380843
11433		9.882815	0.109042	3.964542	-0.004275	0.011539	0.014416	1.000000	-0.000053	0.000144	0.000180	0.084965	0.371426	0.924567	-0.970661	0.240341	-0.007352	-0.224942	-0.896816	0.380949
11434		9.848507	0.128472	3.973081	-0.004937	0.003284	-0.003996	1.000000	-0.000062	0.000041	-0.000050	0.084979	0.371326	0.924606	-0.970619	0.240508	-0.007381	-0.225116	-0.896813	0.380854
11435		9.798872	0.107055	4.054572	0.013574	-0.015032	-0.019926	1.000000	0.000170	-0.000188	-0.000249	0.085279	0.370724	0.924820	-0.970650	0.240397	-0.006861	-0.224868	-0.897091	0.380344
11436		9.778018	0.059266	4.103836	0.018972	0.006819	-0.018454	1.000000	0.000237	0.000085	-0.000231	0.085698	0.370625	0.924821	-0.970712	0.240162	-0.006296	-0.224440	-0.897195	0.380352
11437		9.838909	0.018778	4.046949	0.028471	0.041940	-0.009083	1.000000	0.000356	0.000524	-0.000114	0.086053	0.371368	0.924489	-0.970849	0.239620	-0.005888	-0.223713	-0.897033	0.381162
11438		9.858805	0.089537	3.935532	0.022405	0.035651	-0.002888	1.000000	0.000280	0.000446	-0.000036	0.086218	0.372005	0.924218	-0.970964	0.239159	-0.005684	-0.223149	-0.896892	0.381824
11439		9.872549	0.134667	3.887872	0.011229	0.006212	-0.012152	1.000000	0.000140	0.000078	-0.000152	0.086465	0.371931	0.924224	-0.970997	0.239033	-0.005352	-0.222911	-0.896956	0.381812
11440		9.827282	0.138137	3.991701	-0.014485	-0.004734	-0.020238	1.000000	-0.000181	-0.000059	-0.000253	0.086808	0.371570	0.924338	-0.970879	0.239516	-0.005103	-0.223290	-0.896977	0.381542
11441		9.794505	0.018820	4.028671	-0.011277	-0.000635	-0.020677	1.000000	-0.000141	-0.000008	-0.000258	0.087162	0.371301	0.924412	-0.970783	0.239912	-0.004829	-0.223571	-0.896983	0.381364
11442		9.809148	0.017254	4.030183	0.025194	0.018098	-0.015288	1.000000	0.000315	0.000226	-0.000191	0.087502	0.371481	0.924308	-0.970896	0.239462	-0.004328	-0.222945	-0.897028	0.381623
11443		9.820572	0.088449	3.983122	0.021937	0.027757	-0.012119	1.000000	0.000274	0.000347	-0.000151	0.087823	0.371911	0.924105	-0.971002	0.239039	-0.003923	-0.222356	-0.896963	0.382119
11444		9.814924	0.088008	3.938429	0.002673	0.011551	-0.007681	1.000000	0.000033	0.000144	-0.000096	0.087972	0.371970	0.924067	-0.970991	0.239087	-0.003801	-0.222346	-0.896926	0.382212
11445		9.845883	0.104732	3.951093	-0.003414	-0.005221	-0.009477	1.000000	-0.000043	-0.000065	-0.000118	0.088038	0.371665	0.924183	-0.970962	0.239205	-0.003703	-0.222446	-0.897021	0.381931
11446		9.842163	0.123045	3.997910	0.005358	0.002312	-0.012886	1.000000	0.000067	0.000029	-0.000161	0.088280	0.371503	0.924225	-0.970961	0.239212	-0.003410	-0.222353	-0.897086	0.381833
11447		9.827981	0.109771	4.000039	0.004853	0.011121	-0.014728	1.000000	0.000061	0.000139	-0.000184	0.088624	0.371522	0.924185	-0.970952	0.239254	-0.003072	-0.222256	-0.897067	0.381933
11448		9.821615	0.128762	4.013370	0.000571	0.010693	-0.011436	1.000000	0.000007	0.000134	-0.000143	0.088881	0.371570	0.924141	-0.970931	0.239341	-0.002851	-0.222244	-0.897024	0.382042
11449		9.820768	0.143072	4.032791	-0.009929	-0.001760	-0.012053	1.000000	-0.000124	-0.000022	-0.000151	0.089077	0.371309	0.924227	-0.970842	0.239704	-0.002732	-0.222556	-0.897035	0.381835
11450		9.840739	0.120100	4.044801	-0.001747	-0.000622	-0.019995	1.000000	-0.000022	-0.000008	-0.000250	0.089444	0.371048	0.924296	-0.970794	0.239902	-0.002363	-0.222617	-0.897090	0.381669
11451		9.826516	0.120288	4.064423	0.005053	0.007400	-0.023337	1.000000	0.000063	0.000092	-0.000292	0.089940	0.370930	0.924295	-0.970769	0.240010	-0.001857	-0.222528	-0.897110	0.381673
11452		9.799330	0.135120	4.075413	-0.003293	0.010272	-0.018278	1.000000	-0.000041	0.000128	-0.000228	0.090361	0.370902	0.924265	-0.970701	0.240286	-0.001525	-0.222654	-0.897047	0.381747
11453		9.824830	0.088752	4.037509	-0.007926	0.008442	-0.011819	1.000000	-0.000099	0.000106	-0.000148	0.090596	0.370878	0.924252	-0.970628	0.240580	-0.001396	-0.222874	-0.896979	0.381780
11454		9.874079	0.122948	4.035942	-0.001216	0.014710	-0.005213	1.000000	-0.000015	0.000184	-0.000065	0.090686	0.371040	0.924178	-0.970615	0.240633	-0.001367	-0.222895	-0.896897	0.381959
11455		9.840071	0.204376	4.048372	-0.021516	0.011583	-0.006895	1.000000	-0.000269	0.000145	-0.000086	0.090812	0.371133	0.924129	-0.970486	0.241152	-0.001479	-0.223404	-0.896720	0.382079
11456		9.831220	0.171158	4.039947	-0.031507	0.001956	-0.010707	1.000000	-0.000394	0.000024	-0.000134	0.091020	0.370975	0.924172	-0.970280	0.241979	-0.001572	-0.224213	-0.896562	0.381975
11457		9.812920	0.127233	4.080382	-0.005573	0.003370	-0.020581	1.000000	-0.000070	0.000042	-0.000257	0.091398	0.370806	0.924202	-0.970218	0.242229	-0.001237	-0.224327	-0.896564	0.381902
11458		9.858731	0.100967	4.063346	0.016659	0.021346	-0.018494	1.000000	0.000208	0.000267	-0.000231	0.091836	0.371005	0.924079	-0.970263	0.242052	-0.000755	-0.223956	-0.896530	0.382201
11459		9.867297	0.138159	3.991251	-0.009113	0.032050	-0.008338	1.000000	-0.000114	0.000401	-0.000104	0.092151	0.371529	0.923837	-0.970186	0.242361	-0.000693	-0.224160	-0.896230	0.382786
11460		9.808009	0.180177	3.940990	-0.036298	0.008513	-0.000898	1.000000	-0.000454	0.000106	-0.000011	0.092105	0.371598	0.923814	-0.969991	0.243138	-0.001091	-0.225019	-0.895991	0.382841
11461		9.824275	0.140794	3.986356	-0.022530	-0.017300	-0.018794	1.000000	-0.000282	-0.000216	-0.000235	0.092371	0.370976	0.924037	-0.969826	0.243795	-0.000929	-0.225620	-0.896070	0.382302
11462		9.854679	0.104210	4.094240	0.012234	-0.009148	-0.030557	1.000000	0.000153	-0.000114	-0.000382	0.092956	0.370454	0.924188	-0.969829	0.243787	-0.000174	-0.225369	-0.896288	0.381939
11463		9.783112	0.090073	4.093025	0.017501	0.022562	-0.025666	1.000000	0.000219	0.000282	-0.000321	0.093563	0.370678	0.924036	-0.969877	0.243594	0.000487	-0.224910	-0.896247	0.382304
11464		9.775499	0.065159	4.000742	0.021654	0.034141	-0.014785	1.000000	0.000271	0.000427	-0.000185	0.094018	0.371219	0.923773	-0.969967	0.243236	0.000975	-0.224333	-0.896121	0.382939
11465		9.858975	0.090577	3.949391	0.017997	0.017956	-0.009920	1.000000	0.000225	0.000224	-0.000124	0.094273	0.371424	0.923665	-0.970041	0.242936	0.001317	-0.223902	-0.896118	0.383199
11466		9.892535	0.106229	3.935530	0.012522	0.006203	-0.012598	1.000000	0.000157	0.000078	-0.000157	0.094516	0.371356	0.923667	-0.970082	0.242771	0.001661	-0.223623	-0.896190	0.383192
11467		9.836526	0.120980	3.964018	0.002592	-0.001978	-0.014877	1.000000	0.000032	-0.000025	-0.000186	0.094750	0.371074	0.923757	-0.970063	0.242845	0.001949	-0.223607	-0.896287	0.382974
11468		9.765972	0.109448	4.038206	-0.001852	-0.008366	-0.014002	1.000000	-0.000023	-0.000105	-0.000175	0.094935	0.370652	0.923907	-0.970017	0.243027	0.002176	-0.223728	-0.896412	0.382611
11469		9.767194	0.041034	4.052992	0.011123	0.002486	-0.012129	1.000000	0.000139	0.000031	-0.000152	0.095150	0.370504	0.923945	-0.970053	0.242879	0.002503	-0.223479	-0.896514	0.382518
11470		9.807329	0.044636	4.004394	0.024855	0.017191	-0.001284	1.000000	0.000311	0.000215	-0.000016	0.095176	0.370733	0.923850	-0.970183	0.242357	0.002693	-0.222903	-0.896560	0.382745
11471		9.868294	0.094995	3.966747	0.015604	0.011847	0.016111	1.000000	0.000195	0.000148	0.000201	0.094792	0.370960	0.923798	-0.970304	0.241875	0.002437	-0.222540	-0.896596	0.382872
11472		9.853558	0.201403	3.978614	-0.010443	-0.004686	0.020953	1.000000	-0.000131	-0.000059	0.000262	0.094146	0.370839	0.923913	-0.970297	0.241909	0.001775	-0.222844	-0.896638	0.382598
11473		9.810630	0.203733	4.032891	-0.019717	-0.012272	0.010014	1.000000	-0.000246	-0.000153	0.000125	0.093746	0.370498	0.924090	-0.970215	0.242241	0.001304	-0.223369	-0.896689	0.382172
11474		9.835294	0.166703	4.074776	-0.004535	-0.001856	0.004862	1.000000	-0.000057	-0.000023	0.000061	0.093532	0.370335	0.924177	-0.970194	0.242329	0.001083	-0.223554	-0.896732	0.381962
11475		9.860016	0.171435	4.026436	0.006827	0.019049	0.011510	1.000000	0.000085	0.000238	0.000144	0.093252	0.370708	0.924056	-0.970265	0.242042	0.000814	-0.223359	-0.896655	0.382256
11476		9.813230	0.153760	3.977005	0.008760	0.013330	0.008265	1.000000	0.000110	0.000167	0.000103	0.093012	0.370907	0.924000	-0.970333	0.241773	0.000625	-0.223167	-0.896646	0.382391
11477		9.832527	0.214447	3.969463	0.014730	-0.005829	0.011393	1.000000	0.000184	-0.000073	0.000142	0.092625	0.370698	0.924123	-0.970434	0.241366	0.000446	-0.222886	-0.896842	0.382095
11478		9.858468	0.222891	4.056351	-0.011293	-0.002874	0.003008	1.000000	-0.000141	-0.000036	0.000038	0.092425	0.370503	0.924221	-0.970377	0.241595	0.000190	-0.223217	-0.896861	0.381857
11479		9.853543	0.141387	4.009959	-0.009499	0.006838	-0.002034	1.000000	-0.000119	0.000085	-0.000025	0.092413	0.370504	0.924222	-0.970316	0.241839	0.000073	-0.223486	-0.896795	0.381855
11480		9.832311	0.152789	4.004671	0.012368	0.008429	-0.007109	1.000000	0.000155	0.000105	-0.000089	0.092502	0.370514	0.924209	-0.970376	0.241600	0.000266	-0.223191	-0.896855	0.381887
