// Start Time: Unknown
// Update Rate: 40.0Hz
// Filter Profile: human (46.1)
// Firmware Version: 4.3.4
PacketCounter	SampleTimeFine	Acc_X	Acc_Y	Acc_Z	Gyr_X	Gyr_Y	Gyr_Z	OriInc_q0	OriInc_q1	OriInc_q2	OriInc_q3	Mat[1][1]	Mat[2][1]	Mat[3][1]	Mat[1][2]	Mat[2][2]	Mat[3][2]	Mat[1][3]	Mat[2][3]	Mat[3][3]
10839		9.167768	0.344498	-3.535926	0.209711	-0.308043	-0.439545	0.999974	0.002621	-0.003850	-0.005494	-0.123860	0.335133	0.933994	0.962440	0.269737	0.030846	-0.241596	0.902733	-0.355955
10840		9.210521	0.630794	-4.078837	-0.041016	-0.424005	-0.328042	0.999977	-0.000513	-0.005300	-0.004100	-0.134298	0.342465	0.929883	0.961628	0.271592	0.038859	-0.239241	0.899419	-0.365798
10841		9.239946	0.641898	-4.564706	-0.289870	-0.513544	-0.165290	0.999971	-0.003623	-0.006419	-0.002066	-0.141379	0.358584	0.922730	0.963278	0.264760	0.044703	-0.228272	0.895165	-0.382847
10842		9.079180	1.042564	-4.684260	-0.364315	-0.530076	0.032121	0.999968	-0.004554	-0.006626	0.000402	-0.145042	0.371896	0.916873	0.964942	0.258042	0.047981	-0.218748	0.891688	-0.396285
10843		8.921182	1.413958	-5.037320	-0.488435	-0.498122	0.279570	0.999956	-0.006105	-0.006226	0.003495	-0.144554	0.386616	0.910842	0.967335	0.248943	0.047854	-0.208247	0.888007	-0.409973
10844		8.726754	1.286137	-4.913944	-0.557263	-0.413795	0.497990	0.999943	-0.006966	-0.005172	0.006225	-0.141113	0.402517	0.904471	0.969829	0.239660	0.044654	-0.198792	0.883484	-0.424191
10845		8.734270	1.623586	-4.272443	-0.623223	-0.333630	0.666471	0.999926	-0.007790	-0.004170	0.008331	-0.135123	0.417695	0.898483	0.972404	0.229963	0.039333	-0.190189	0.879004	-0.437242
10846		8.797870	1.643834	-3.893542	-0.606349	-0.250316	0.810783	0.999915	-0.007579	-0.003129	0.010134	-0.124174	0.430070	0.894215	0.976209	0.214388	0.032451	-0.177752	0.876970	-0.446460
10847		8.786190	1.282124	-3.841591	-0.646323	-0.161112	0.902025	0.999902	-0.008079	-0.002014	0.011275	-0.108519	0.437605	0.892595	0.981239	0.191089	0.025612	-0.159357	0.878628	-0.450132
10848		8.640277	1.217926	-3.435135	-0.586602	-0.063094	0.951153	0.999902	-0.007332	-0.000789	0.011889	-0.088892	0.441041	0.893074	0.986364	0.163663	0.017354	-0.138509	0.882438	-0.449576
10849		8.885384	1.098445	-2.956111	-0.564937	0.005444	0.964868	0.999902	-0.007061	0.000068	0.012060	-0.065961	0.439850	0.895646	0.991569	0.129230	0.009561	-0.111539	0.888725	-0.444665
10850		9.184733	0.474243	-2.586500	-0.411526	0.078180	0.864418	0.999928	-0.005144	0.000977	0.010805	-0.037235	0.431371	0.901406	0.996580	0.082615	0.001630	-0.073767	0.898384	-0.432972
10851		9.485321	0.200822	-2.710888	-0.138850	0.186642	0.715858	0.999956	-0.001736	0.002333	0.008948	-0.014145	0.419187	0.907790	0.998733	0.049770	-0.007420	-0.048291	0.906535	-0.419360
10852		9.375135	-0.416831	-2.869819	0.283060	0.337185	0.497338	0.999966	0.003538	0.004215	0.006217	-0.000377	0.406682	0.913570	0.998652	0.047572	-0.020765	-0.051905	0.912330	-0.406152
10853		9.538455	0.374789	-2.217355	0.631077	0.494884	0.251948	0.999945	0.007888	0.006186	0.003149	0.011198	0.385613	0.922593	0.998642	0.042634	-0.029940	-0.050879	0.921675	-0.384612
10854		9.555976	0.057726	-2.225570	0.879115	0.599593	0.066973	0.999911	0.010989	0.007495	0.000837	0.016799	0.363308	0.931518	0.997640	0.055943	-0.039810	-0.066575	0.929988	-0.361511
10855		9.072389	0.380763	-3.017795	1.225159	0.689152	-0.200575	0.999842	0.015314	0.008614	-0.002507	0.018075	0.335472	0.941877	0.996421	0.071755	-0.044679	-0.082573	0.939313	-0.332974
10856		7.901692	2.005293	-3.115092	1.165968	0.735287	-0.460591	0.999835	0.014574	0.009191	-0.005757	0.010853	0.313009	0.949688	0.995010	0.090827	-0.041306	-0.099187	0.945397	-0.310461
10857		8.966201	2.048834	-2.741712	0.858300	0.702468	-0.408551	0.999891	0.010728	0.008781	-0.005107	0.003941	0.291805	0.956470	0.994682	0.097298	-0.033782	-0.102920	0.951516	-0.289869
10858		11.228535	1.137381	-1.093901	-0.060822	0.732754	-0.240069	0.999953	-0.000760	0.009159	-0.003001	-0.000436	0.271440	0.962455	0.996260	0.083275	-0.023034	-0.086401	0.958846	-0.270461
10859		10.310469	-2.107564	-1.593234	-0.363070	0.674277	-0.271782	0.999948	-0.004538	0.008428	-0.003397	-0.008401	0.248319	0.968642	0.998117	0.060946	-0.006968	-0.060766	0.966759	-0.248363
10860		9.952567	0.353467	-0.015576	-0.171133	0.595988	-0.387686	0.999958	-0.002139	0.007450	-0.004846	-0.013467	0.229818	0.973140	0.999006	0.044458	0.003326	-0.042499	0.972218	-0.230188
10861		10.299558	1.482236	0.571265	-0.463185	0.435904	-0.354960	0.999959	-0.005790	0.005449	-0.004437	-0.019132	0.212439	0.976987	0.999810	0.007771	0.017889	-0.003792	0.977143	-0.212547
10862		10.108525	1.969206	-0.315264	-0.449075	0.356115	-0.264821	0.999969	-0.005613	0.004451	-0.003310	-0.026659	0.196303	0.980181	0.999356	-0.018322	0.030850	0.024015	0.980372	-0.195688
10863		9.997844	1.753661	-1.197929	-0.350667	0.291602	-0.176693	0.999981	-0.004383	0.003645	-0.002209	-0.029601	0.182167	0.982822	0.997969	-0.050104	0.039344	0.056410	0.981990	-0.180314
10864		9.649620	1.656846	-1.368672	-0.291418	0.257751	-0.095838	0.999987	-0.003643	0.003222	-0.001198	-0.034293	0.170154	0.984821	0.996923	-0.063670	0.045715	0.070482	0.983358	-0.167447
10865		9.443114	0.921635	-1.317370	-0.173193	0.248568	-0.056401	0.999993	-0.002165	0.003107	-0.000705	-0.034399	0.159329	0.986626	0.994387	-0.093378	0.049749	0.100055	0.982800	-0.155222
10866		9.482200	0.430057	-1.703908	-0.067476	0.254047	-0.047545	0.999994	-0.000843	0.003176	-0.000594	-0.037661	0.149183	0.988092	0.992972	-0.105433	0.053765	0.112198	0.983173	-0.144164
10867		9.315576	0.715416	-1.673655	-0.127245	0.284485	-0.040295	0.999992	-0.001591	0.003556	-0.000504	-0.039397	0.139900	0.989382	0.991587	-0.116710	0.055988	0.123304	0.983263	-0.134125
10868		9.842844	0.436623	-1.101109	-0.251027	0.263904	-0.047832	0.999989	-0.003138	0.003299	-0.000598	-0.040845	0.131311	0.990499	0.988270	-0.140688	0.059404	0.147152	0.981307	-0.124024
10869		9.607474	0.187899	-0.690653	-0.285710	0.258955	-0.064780	0.999988	-0.003571	0.003237	-0.000810	-0.045615	0.122946	0.991364	0.985350	-0.157713	0.064898	0.164330	0.979801	-0.113951
10870		9.752328	0.241498	-0.157596	-0.238532	0.196861	-0.098693	0.999992	-0.002982	0.002461	-0.001234	-0.048199	0.117281	0.991928	0.984221	-0.163694	0.067179	0.170251	0.979515	-0.107540
10871		9.878393	0.805559	0.041841	-0.133660	0.153685	-0.114668	0.999996	-0.001671	0.001921	-0.001433	-0.050531	0.112484	0.992368	0.981729	-0.176923	0.070043	0.183451	0.977776	-0.101488
10872		9.776590	0.994012	-0.758900	0.015479	0.121144	-0.116279	0.999998	0.000193	0.001514	-0.001453	-0.054026	0.108203	0.992660	0.981248	-0.178451	0.072856	0.185025	0.977981	-0.096533
10873		9.451462	0.232413	-1.345872	-0.001872	0.105157	-0.129612	0.999998	-0.000023	0.001314	-0.001620	-0.058042	0.104486	0.992831	0.980174	-0.182759	0.076536	0.189445	0.977590	-0.091806
10874		9.716821	0.729446	-0.660400	-0.105198	0.066612	-0.143135	0.999997	-0.001315	0.000833	-0.001789	-0.061380	0.101920	0.992897	0.978733	-0.188941	0.079899	0.195743	0.976685	-0.088156
10875		9.587533	2.148252	-0.115197	-0.085411	0.044217	-0.134845	0.999998	-0.001068	0.000553	-0.001686	-0.064489	0.100271	0.992868	0.976741	-0.197541	0.083391	0.204494	0.975153	-0.085199
10876		9.437346	1.418800	-1.255266	0.007483	0.048225	-0.090095	0.999999	0.000094	0.000603	-0.001126	-0.067824	0.098343	0.992839	0.975654	-0.201488	0.086608	0.208562	0.974542	-0.082283
10877		9.707874	1.582814	-1.510479	0.009467	0.056172	-0.053969	1.000000	0.000118	0.000702	-0.000675	-0.070597	0.096405	0.992835	0.974765	-0.204645	0.089183	0.211776	0.974077	-0.079525
10878		10.177292	1.456965	-0.926915	0.055193	0.057096	-0.023192	0.999999	0.000690	0.000714	-0.000290	-0.072904	0.094604	0.992842	0.975134	-0.202133	0.090865	0.209282	0.974778	-0.077515
10879		9.879269	2.201007	-0.281500	0.103156	0.038965	0.026931	0.999999	0.001289	0.000487	0.000337	-0.073894	0.092868	0.992933	0.976136	-0.197138	0.091082	0.204204	0.975967	-0.076085
10880		9.613254	1.272048	-0.539803	0.172308	0.019798	0.063065	0.999997	0.002154	0.000247	0.000788	-0.072533	0.091548	0.993156	0.976927	-0.194039	0.089234	0.200880	0.976713	-0.075361
10881		8.776103	-0.299844	-1.705670	0.044373	0.031708	0.035592	1.000000	0.000555	0.000396	0.000445	-0.074055	0.089972	0.993187	0.977606	-0.190168	0.090120	0.196981	0.977620	-0.073874
10882		10.208397	-0.256322	-0.878350	-0.219728	-0.031332	0.005225	0.999996	-0.002747	-0.000392	0.000065	-0.074879	0.090171	0.993107	0.977053	-0.192508	0.091147	0.199400	0.977144	-0.073687
10883		9.958310	1.390033	0.448953	-0.091935	-0.071187	-0.030505	0.999999	-0.001149	-0.000890	-0.000381	-0.076183	0.091120	0.992922	0.978046	-0.186887	0.092192	0.193965	0.978146	-0.074882
10884		9.529160	1.279565	-0.270619	0.001070	-0.088645	-0.017503	0.999999	0.000013	-0.001108	-0.000219	-0.077345	0.092494	0.992705	0.978885	-0.181920	0.093218	0.189215	0.978953	-0.076471
10885		9.453477	1.066377	-1.556465	0.035296	-0.076763	-0.014485	0.999999	0.000441	-0.000960	-0.000181	-0.077964	0.093778	0.992536	0.979221	-0.179748	0.093901	0.187213	0.979232	-0.077815
10886		9.801549	1.057344	-1.494774	-0.122188	-0.096421	0.008588	0.999998	-0.001527	-0.001205	0.000107	-0.077902	0.095589	0.992368	0.978992	-0.180800	0.094268	0.188431	0.978864	-0.079496
10887		9.593845	0.857470	-1.036019	-0.057309	-0.090866	0.000928	0.999999	-0.000716	-0.001136	0.000012	-0.078304	0.097430	0.992157	0.979195	-0.179363	0.094895	0.187202	0.978946	-0.081358
10888		9.761048	1.165727	-0.797926	-0.080768	-0.090082	0.008763	0.999999	-0.001010	-0.001126	0.000110	-0.078255	0.099397	0.991966	0.978948	-0.180490	0.095313	0.188514	0.978542	-0.083180
10889		9.560681	0.616763	-1.228049	-0.015503	-0.070614	0.005044	1.000000	-0.000194	-0.000883	0.000063	-0.078606	0.100766	0.991800	0.979312	-0.178279	0.095729	0.186464	0.978807	-0.084668
10890		9.685678	0.996148	-1.175214	-0.010187	-0.074682	0.001145	1.000000	-0.000127	-0.000934	0.000014	-0.078296	0.102944	0.991601	0.978542	-0.182224	0.096183	0.190594	0.977853	-0.086468
10891		9.793555	1.153296	-1.261470	-0.050026	-0.076826	0.018780	0.999999	-0.000625	-0.000960	0.000235	-0.077991	0.104624	0.991449	0.978597	-0.181930	0.096178	0.190437	0.977730	-0.088196
10892		9.643249	1.170961	-1.375611	-0.050568	-0.054789	0.026004	1.000000	-0.000632	-0.000685	0.000325	-0.077749	0.105971	0.991325	0.978273	-0.183573	0.096349	0.192191	0.977277	-0.089396
10893		9.701473	1.248409	-1.492191	-0.067676	-0.033169	0.051654	0.999999	-0.000846	-0.000415	0.000646	-0.076898	0.106780	0.991305	0.977834	-0.186125	0.095901	0.194747	0.976706	-0.090100
10894		9.598098	0.972660	-1.369663	-0.087083	-0.021660	0.060059	0.999999	-0.001089	-0.000271	0.000751	-0.075701	0.107197	0.991352	0.977594	-0.187859	0.094964	0.196414	0.976329	-0.090574
10895		9.722599	0.681930	-1.070007	-0.130448	-0.022547	0.060770	0.999998	-0.001631	-0.000282	0.000760	-0.073932	0.108004	0.991398	0.976639	-0.193289	0.093889	0.201766	0.975179	-0.091191
10896		9.618589	0.512009	-1.058945	-0.133087	-0.022952	0.046692	0.999998	-0.001664	-0.000287	0.000584	-0.073152	0.108209	0.991433	0.976744	-0.193119	0.093146	0.201543	0.975190	-0.091565
10897		9.641876	0.427585	-0.943690	-0.158438	-0.045480	0.018129	0.999998	-0.001980	-0.000568	0.000227	-0.072777	0.109651	0.991302	0.975687	-0.198199	0.093554	0.206733	0.974009	-0.092561
10898		9.912926	0.487857	-0.922618	-0.133259	-0.068363	-0.013678	0.999998	-0.001666	-0.000855	-0.000171	-0.072979	0.111747	0.991053	0.974752	-0.202270	0.094585	0.211030	0.972934	-0.094164
10899		10.003029	1.304267	-1.104053	-0.164215	-0.075836	-0.016414	0.999997	-0.002053	-0.000948	-0.000205	-0.072975	0.113905	0.990808	0.973879	-0.206046	0.095415	0.215020	0.971890	-0.095894
10900		9.850827	0.659258	-1.143817	-0.221611	-0.096061	-0.016159	0.999995	-0.002770	-0.001201	-0.000202	-0.072973	0.116715	0.990481	0.972371	-0.212482	0.096677	0.221743	0.970170	-0.097984
10901		9.931725	1.102648	-1.616049	-0.116094	-0.082919	0.015929	0.999998	-0.001451	-0.001036	0.000199	-0.072360	0.118965	0.990258	0.971570	-0.215996	0.096943	0.225424	0.969120	-0.099953
10902		9.477731	1.914803	-2.369406	0.021236	-0.013511	0.046210	1.000000	0.000265	-0.000169	0.000578	-0.071553	0.119133	0.990297	0.972141	-0.213852	0.095967	0.223210	0.969574	-0.100513
10903		9.681589	2.778999	-2.191388	-0.017561	0.048079	0.102162	0.999999	-0.000220	0.000601	0.001277	-0.069529	0.117781	0.990603	0.972409	-0.213657	0.093655	0.222680	0.969783	-0.099676
10904		9.263671	1.472534	-1.992697	-0.225105	0.087177	0.207193	0.999992	-0.002814	0.001090	0.002590	-0.065497	0.114870	0.991219	0.971936	-0.217582	0.089438	0.225945	0.969259	-0.097395
10905		9.269354	0.686615	-1.915007	-0.130012	0.126035	0.211881	0.999994	-0.001625	0.001575	0.002649	-0.061727	0.110881	0.991915	0.972236	-0.218067	0.084879	0.225715	0.969614	-0.094342
10906		9.767478	1.184183	-0.916618	0.008946	0.186842	0.183945	0.999995	0.000112	0.002336	0.002299	-0.058600	0.105799	0.992659	0.972960	-0.216487	0.080510	0.223416	0.970536	-0.090253
10907		9.380526	-0.116160	-1.209399	0.221140	0.261166	0.161386	0.999989	0.002764	0.003265	0.002017	-0.056299	0.099104	0.993483	0.974597	-0.210593	0.076237	0.216776	0.972537	-0.084730
10908		9.338521	0.302005	-2.029108	0.527345	0.303341	0.130630	0.999970	0.006592	0.003792	0.001633	-0.054965	0.091504	0.994287	0.977711	-0.197156	0.072193	0.202635	0.976093	-0.078628
10909		9.488929	1.049174	-1.982474	0.466455	0.288107	0.142911	0.999975	0.005831	0.003601	0.001786	-0.053216	0.084422	0.995008	0.980047	-0.186681	0.068254	0.191511	0.978787	-0.072803
10910		9.724595	0.764903	-1.145866	0.335129	0.283879	0.155664	0.999983	0.004189	0.003548	0.001946	-0.050990	0.077379	0.995697	0.981942	-0.177987	0.064117	0.182182	0.980986	-0.066906
10911		9.681998	0.640435	-0.033419	0.192013	0.287552	0.149938	0.999989	0.002400	0.003594	0.001874	-0.048842	0.070178	0.996338	0.983300	-0.171710	0.060298	0.175313	0.982645	-0.060619
10912		10.011083	0.161694	0.633800	0.024791	0.231556	0.127612	0.999994	0.000310	0.002894	0.001595	-0.046955	0.064383	0.996820	0.983823	-0.169730	0.057306	0.172880	0.983385	-0.055372
10913		9.716471	-1.546912	0.016414	0.071112	0.187229	0.044118	0.999997	0.000889	0.002340	0.000551	-0.046495	0.060104	0.997109	0.984301	-0.167382	0.055987	0.170263	0.984058	-0.051378
10914		9.779906	-0.402785	-0.102883	0.095675	0.127460	-0.052441	0.999998	0.001196	0.001593	-0.000656	-0.048278	0.057913	0.997154	0.984136	-0.167874	0.057398	0.170721	0.984106	-0.048890
10915		10.021233	0.002858	-0.274808	-0.058128	0.066788	-0.078377	0.999999	-0.000727	0.000835	-0.000980	-0.050419	0.056991	0.997101	0.983821	-0.169020	0.059408	0.171916	0.983963	-0.047547
10916		9.699006	0.759108	-0.236899	-0.102318	0.046336	-0.100288	0.999998	-0.001279	0.000579	-0.001254	-0.052801	0.056847	0.996986	0.983065	-0.172489	0.061899	0.175488	0.983370	-0.046777
10917		9.827771	1.209886	-0.342379	-0.186862	0.029083	-0.081121	0.999997	-0.002336	0.000364	-0.001014	-0.054733	0.056961	0.996875	0.982057	-0.177372	0.064054	0.180466	0.982494	-0.046231
10918		9.837053	0.926493	-0.513753	-0.124013	0.022160	-0.069223	0.999998	-0.001550	0.000277	-0.000865	-0.056329	0.057323	0.996765	0.981165	-0.181585	0.065890	0.184775	0.981703	-0.046014
10919		9.864978	0.596640	-0.720315	-0.010521	0.028460	-0.064035	1.000000	-0.000132	0.000356	-0.000800	-0.058288	0.056912	0.996676	0.981482	-0.179219	0.067633	0.182473	0.982162	-0.045412
10920		9.592331	0.235568	-0.757709	-0.064297	0.026020	-0.074505	0.999999	-0.000804	0.000325	-0.000931	-0.060094	0.056992	0.996564	0.981125	-0.180459	0.069483	0.183799	0.981930	-0.045072
10921		9.871606	0.549869	0.120898	-0.239244	-0.028776	-0.073977	0.999995	-0.002991	-0.000360	-0.000925	-0.061825	0.058402	0.996377	0.979788	-0.186730	0.071741	0.190243	0.980674	-0.045677
10922		9.803982	0.663380	-0.115568	-0.138276	-0.032664	-0.089401	0.999998	-0.001728	-0.000408	-0.001118	-0.063801	0.059801	0.996169	0.979080	-0.189508	0.074082	0.193213	0.980056	-0.046459
10923		9.583859	0.940254	-1.029402	-0.080897	-0.017933	-0.085139	0.999999	-0.001011	-0.000224	-0.001064	-0.065719	0.060782	0.995985	0.978677	-0.190740	0.076217	0.194607	0.979757	-0.046950
10924		9.858557	1.222842	-1.108455	-0.182599	-0.029770	-0.058010	0.999997	-0.002282	-0.000372	-0.000725	-0.066972	0.062190	0.995815	0.977624	-0.195385	0.077950	0.199415	0.978753	-0.047713
10925		9.704682	0.984696	-0.741872	-0.164366	-0.010067	-0.040916	0.999998	-0.002055	-0.000126	-0.000511	-0.067974	0.062701	0.995715	0.976813	-0.198903	0.079208	0.203017	0.978011	-0.047727
10926		9.778006	0.936264	-0.594665	-0.090679	-0.003000	-0.028148	0.999999	-0.001133	-0.000037	-0.000352	-0.068960	0.063291	0.995610	0.975856	-0.203038	0.080499	0.207241	0.977123	-0.047762
10927		9.865518	0.883783	-0.483296	-0.067339	-0.014667	-0.017004	1.000000	-0.000842	-0.000183	-0.000213	-0.069296	0.064158	0.995531	0.975475	-0.204628	0.081087	0.208915	0.976735	-0.048405
10928		9.689573	0.361044	-0.525356	0.011414	-0.014128	-0.038247	1.000000	0.000143	-0.000177	-0.000478	-0.070169	0.065083	0.995410	0.975478	-0.204204	0.082116	0.208611	0.976762	-0.049159
10929		9.702800	0.638085	-0.617402	-0.022293	-0.021107	-0.049114	1.000000	-0.000279	-0.000264	-0.000614	-0.071147	0.065979	0.995281	0.975553	-0.203396	0.083221	0.207927	0.976871	-0.049895
10930		9.864844	1.082239	-0.776880	-0.052070	-0.023588	-0.047135	1.000000	-0.000651	-0.000295	-0.000589	-0.072082	0.066843	0.995156	0.975471	-0.203341	0.084314	0.207992	0.976824	-0.050546
10931		9.723925	1.075023	-0.834081	-0.024982	-0.010873	-0.039740	1.000000	-0.000312	-0.000136	-0.000497	-0.073027	0.067313	0.995056	0.975407	-0.203225	0.085333	0.207964	0.976816	-0.050817
10932		9.715041	0.834363	-0.620032	-0.000117	-0.010718	-0.032252	1.000000	-0.000001	-0.000134	-0.000403	-0.073701	0.068009	0.994959	0.975504	-0.202432	0.086097	0.207267	0.976932	-0.051423
10933		9.727271	0.836903	-0.334211	0.074593	-0.014775	-0.028518	0.999999	0.000932	-0.000185	-0.000356	-0.074369	0.068769	0.994857	0.975824	-0.200580	0.086811	0.205518	0.977261	-0.052190
10934		9.561000	0.770248	-0.543390	0.114018	0.002877	-0.041128	0.999999	0.001425	0.000036	-0.000514	-0.075454	0.069027	0.994757	0.976344	-0.197609	0.087769	0.202631	0.977848	-0.052483
10935		9.761151	1.015847	-0.701249	0.011896	-0.008213	-0.026470	1.000000	0.000149	-0.000103	-0.000331	-0.076195	0.069528	0.994666	0.976220	-0.197843	0.088612	0.202948	0.977765	-0.052800
10936		9.840745	1.190348	-0.703175	0.017727	-0.005132	-0.011327	1.000000	0.000222	-0.000064	-0.000142	-0.076424	0.069949	0.994619	0.976400	-0.196840	0.088868	0.201997	0.977937	-0.053255
10937		9.855759	1.284413	-0.805586	0.078055	-0.001050	0.010657	1.000000	0.000976	-0.000013	0.000133	-0.076096	0.070295	0.994619	0.976929	-0.194372	0.088480	0.199546	0.978406	-0.053883
10938		9.476683	0.533219	-1.168476	0.124273	0.025490	0.006390	0.999999	0.001553	0.000319	0.000080	-0.076038	0.069890	0.994653	0.977718	-0.190528	0.088131	0.195668	0.979191	-0.053845
10939		9.793410	0.840507	-0.913169	0.024952	0.003135	0.012836	1.000000	0.000312	0.000039	0.000160	-0.075837	0.069946	0.994664	0.977811	-0.190146	0.087924	0.195281	0.979261	-0.053973
10940		9.772652	0.878926	-0.566149	0.039345	0.007475	0.007258	1.000000	0.000492	0.000093	0.000091	-0.075567	0.070072	0.994676	0.978288	-0.187848	0.087556	0.192983	0.979695	-0.054355
10941		9.702048	1.135054	-0.492355	0.056486	0.010341	0.014348	1.000000	0.000706	0.000129	0.000179	-0.075217	0.070081	0.994702	0.978729	-0.185751	0.087096	0.190871	0.980094	-0.054619
10942		9.745234	0.815437	-0.774960	0.065382	0.012899	0.020512	1.000000	0.000817	0.000161	0.000256	-0.074802	0.070005	0.994738	0.979095	-0.184059	0.086579	0.189151	0.980419	-0.054774
10943		9.631925	0.712404	-0.857802	0.046465	0.018256	0.014097	1.000000	0.000581	0.000228	0.000176	-0.074728	0.069800	0.994758	0.979090	-0.184134	0.086472	0.189204	0.980420	-0.054580
10944		9.788736	0.692034	-0.662022	-0.008596	0.005028	0.013130	1.000000	-0.000107	0.000063	0.000164	-0.074515	0.069709	0.994780	0.979073	-0.184328	0.086255	0.189379	0.980390	-0.054515
10945		9.752123	0.766730	-0.535596	0.016998	0.002055	0.000746	1.000000	0.000212	0.000026	0.000009	-0.074528	0.070151	0.994748	0.979112	-0.184080	0.086338	0.189170	0.980405	-0.054967
10946		9.637000	0.835042	-0.642333	0.033917	-0.001356	-0.005640	1.000000	0.000424	-0.000017	-0.000071	-0.074674	0.070660	0.994701	0.979238	-0.183318	0.086535	0.188461	0.980511	-0.055504
10947		9.699090	0.819278	-0.859809	0.026604	0.002132	-0.006482	1.000000	0.000333	0.000027	-0.000081	-0.074914	0.070855	0.994670	0.979329	-0.182716	0.086774	0.187890	0.980609	-0.055702
10948		9.786763	0.894895	-0.847187	-0.014854	-0.002630	-0.002138	1.000000	-0.000186	-0.000033	-0.000027	-0.075058	0.071196	0.994634	0.979171	-0.183442	0.087022	0.188653	0.980449	-0.055944
10949		9.758748	0.833306	-0.714540	-0.033833	-0.001793	-0.003486	1.000000	-0.000423	-0.000022	-0.000044	-0.075146	0.071519	0.994604	0.979080	-0.183846	0.087193	0.189090	0.980350	-0.056208
10950		9.675245	0.696815	-0.592564	-0.030948	-0.000471	-0.011227	1.000000	-0.000387	-0.000006	-0.000140	-0.075407	0.071721	0.994570	0.979087	-0.183675	0.087479	0.188951	0.980367	-0.056371
10951		9.773454	0.747930	-0.530518	-0.048884	-0.009201	-0.017475	1.000000	-0.000611	-0.000115	-0.000218	-0.075719	0.072361	0.994500	0.979006	-0.183893	0.087920	0.189243	0.980279	-0.056918
10952		9.737009	0.728407	-0.642569	-0.045695	-0.011866	-0.025491	1.000000	-0.000571	-0.000148	-0.000319	-0.076322	0.072942	0.994412	0.978751	-0.184885	0.088681	0.190320	0.980050	-0.057282
10953		9.734170	0.859536	-0.733380	-0.054429	-0.017653	-0.028761	1.000000	-0.000680	-0.000221	-0.000360	-0.077064	0.073873	0.994286	0.978250	-0.187022	0.089716	0.192580	0.979574	-0.057853
10954		9.795635	0.884626	-0.683857	-0.067945	-0.026302	-0.029924	1.000000	-0.000849	-0.000329	-0.000374	-0.077689	0.074855	0.994164	0.977913	-0.188355	0.090601	0.194038	0.979244	-0.058569
10955		9.657995	0.956877	-0.737895	-0.042506	-0.021550	-0.030287	1.000000	-0.000531	-0.000269	-0.000379	-0.078387	0.075895	0.994030	0.977570	-0.189660	0.091570	0.195478	0.978912	-0.059326
10956		9.696226	1.006706	-0.784448	-0.070191	-0.019093	-0.026626	1.000000	-0.000877	-0.000239	-0.000333	-0.079034	0.076642	0.993921	0.977097	-0.191648	0.092475	0.197571	0.978467	-0.059740
10957		9.820364	0.991269	-0.767619	-0.068194	-0.016169	-0.017301	1.000000	-0.000852	-0.000202	-0.000216	-0.079448	0.077403	0.993829	0.976694	-0.193376	0.093139	0.199392	0.978067	-0.060236
10958		9.698452	0.927554	-0.754562	-0.054158	-0.013643	-0.013445	1.000000	-0.000677	-0.000171	-0.000168	-0.079768	0.077915	0.993764	0.976385	-0.194688	0.093637	0.200770	0.977766	-0.060545
10959		9.765106	0.926892	-0.693129	-0.066239	-0.015827	-0.009727	1.000000	-0.000828	-0.000198	-0.000122	-0.080007	0.078652	0.993686	0.975993	-0.196410	0.094129	0.202574	0.977362	-0.061049
10960		9.756163	0.894863	-0.671776	-0.048974	-0.019351	-0.008807	1.000000	-0.000612	-0.000242	-0.000110	-0.080208	0.079415	0.993610	0.975653	-0.197881	0.094574	0.204127	0.977004	-0.061610
10961		9.721877	0.990098	-0.701870	-0.017882	-0.017002	-0.008999	1.000000	-0.000224	-0.000213	-0.000112	-0.080385	0.080125	0.993538	0.975552	-0.198218	0.094916	0.204542	0.976878	-0.062232
10962		9.750581	1.006637	-0.744190	-0.009286	-0.015282	-0.001178	1.000000	-0.000116	-0.000191	-0.000015	-0.080387	0.080642	0.993496	0.975548	-0.198186	0.095022	0.204560	0.976841	-0.062739
10963		9.761616	0.945277	-0.777901	0.017657	-0.013895	0.002353	1.000000	0.000221	-0.000174	0.000029	-0.080332	0.081121	0.993462	0.975682	-0.197522	0.095022	0.203939	0.976936	-0.063281
10964		9.726383	0.894644	-0.709473	0.023660	-0.015488	0.000839	1.000000	0.000296	-0.000194	0.000010	-0.080306	0.081635	0.993422	0.975792	-0.196956	0.095066	0.203421	0.977008	-0.063842
10965		9.738554	0.921766	-0.709023	0.035020	-0.019253	-0.000021	1.000000	0.000438	-0.000241	-0.000000	-0.080281	0.082396	0.993361	0.975933	-0.196219	0.095148	0.202756	0.977092	-0.064660
10966		9.717053	0.946976	-0.801176	0.048867	-0.016166	0.001275	1.000000	0.000611	-0.000202	0.000016	-0.080263	0.083095	0.993304	0.976134	-0.195186	0.095204	0.201790	0.977240	-0.065446
10967		9.710949	0.903098	-0.892593	0.036034	-0.011255	0.001351	1.000000	0.000450	-0.000141	0.000017	-0.080251	0.083562	0.993266	0.976266	-0.194511	0.095242	0.201160	0.977335	-0.065969
10968		9.706504	0.859843	-0.841711	0.016019	-0.010567	-0.001446	1.000000	0.000200	-0.000132	-0.000018	-0.080205	0.083919	0.993240	0.976506	-0.193325	0.095188	0.200006	0.977539	-0.066441
10969		9.732024	0.907585	-0.682293	0.018255	-0.011360	-0.006584	1.000000	0.000228	-0.000142	-0.000082	-0.080339	0.084296	0.993197	0.976668	-0.192435	0.095335	0.199162	0.977682	-0.066869
10970		9.731880	0.872676	-0.714188	0.021837	-0.014267	-0.005189	1.000000	0.000273	-0.000178	-0.000065	-0.080388	0.084846	0.993146	0.976883	-0.191298	0.095415	0.198082	0.977858	-0.067507
10971		9.745573	0.968743	-0.818389	0.027436	-0.012859	-0.008590	1.000000	0.000343	-0.000161	-0.000107	-0.080608	0.085541	0.993068	0.976917	-0.190958	0.095746	0.197825	0.977864	-0.068174
10972		9.650085	0.860577	-0.941503	0.009924	-0.008399	-0.010450	1.000000	0.000124	-0.000105	-0.000131	-0.080864	0.086011	0.993007	0.976960	-0.190581	0.096064	0.197510	0.977896	-0.068618
10973		9.699880	0.946750	-0.830277	-0.033870	-0.011017	-0.010369	1.000000	-0.000423	-0.000138	-0.000130	-0.081078	0.086512	0.992946	0.976805	-0.191193	0.096418	0.198186	0.977733	-0.069003
10974		9.771434	1.093095	-0.818793	-0.024633	-0.007100	-0.005188	1.000000	-0.000308	-0.000089	-0.000065	-0.081272	0.086965	0.992891	0.976593	-0.192100	0.096764	0.199150	0.977514	-0.069317
10975		9.690276	1.098172	-0.848396	0.004902	0.002413	-0.001645	1.000000	0.000061	0.000030	-0.000021	-0.081478	0.087198	0.992853	0.976442	-0.192721	0.097057	0.199807	0.977372	-0.069441
10976		9.692882	0.906790	-0.786920	0.002583	0.002093	0.003439	1.000000	0.000032	0.000026	0.000043	-0.081353	0.087417	0.992844	0.976606	-0.191956	0.096924	0.199055	0.977502	-0.069756
10977		9.759345	0.895761	-0.763227	0.012311	0.001409	0.002992	1.000000	0.000154	0.000018	0.000037	-0.081426	0.087697	0.992814	0.976526	-0.192285	0.097075	0.199416	0.977413	-0.069981
10978		9.750604	1.006476	-0.807718	0.021320	0.003319	0.003866	1.000000	0.000266	0.000041	0.000048	-0.081466	0.087832	0.992798	0.976541	-0.192181	0.097134	0.199328	0.977421	-0.070116
10979		9.656180	0.950474	-0.839890	0.007933	0.001402	0.005760	1.000000	0.000099	0.000018	0.000072	-0.081346	0.087832	0.992808	0.976670	-0.191603	0.096975	0.198743	0.977535	-0.070197
10980		9.705530	0.932440	-0.831325	-0.000357	0.002655	0.004440	1.000000	-0.000004	0.000033	0.000056	-0.081260	0.087877	0.992811	0.976814	-0.190932	0.096851	0.198070	0.977662	-0.070324
10981		9.754921	0.914677	-0.821893	-0.007907	0.006957	0.004779	1.000000	-0.000099	0.000087	0.000060	-0.081219	0.087989	0.992805	0.976803	-0.190992	0.096837	0.198139	0.977640	-0.070436
10982		9.711415	1.036625	-0.805674	0.007479	0.007338	0.007244	1.000000	0.000093	0.000092	0.000091	-0.081171	0.088056	0.992803	0.976808	-0.190986	0.096802	0.198135	0.977635	-0.070511
10983		9.723857	1.006541	-0.886165	-0.015892	0.008409	0.012399	1.000000	-0.000199	0.000105	0.000155	-0.080968	0.088108	0.992815	0.976722	-0.191502	0.096651	0.198641	0.977530	-0.070552
10984		9.674084	0.821077	-0.829021	-0.023654	0.010715	0.008415	1.000000	-0.000296	0.000134	0.000105	-0.080861	0.087967	0.992836	0.976650	-0.191923	0.096547	0.199041	0.977460	-0.070393
10985		9.719820	0.841317	-0.718022	-0.017232	0.009170	0.002076	1.000000	-0.000215	0.000115	0.000026	-0.080866	0.087855	0.992846	0.976640	-0.191976	0.096533	0.199084	0.977459	-0.070279
10986		9.735821	0.911798	-0.633335	-0.005095	0.004156	-0.004267	1.000000	-0.000064	0.000052	-0.000053	-0.081006	0.088034	0.992818	0.976659	-0.191799	0.096694	0.198934	0.977478	-0.070443
10987		9.725012	0.952280	-0.743234	0.007247	0.002615	-0.004618	1.000000	0.000091	0.000033	-0.000058	-0.081251	0.088220	0.992782	0.976580	-0.192055	0.096991	0.199225	0.977411	-0.070550
10988		9.763903	0.961995	-0.864834	0.010299	0.003055	-0.003463	1.000000	0.000129	0.000038	-0.000043	-0.081408	0.088323	0.992760	0.976661	-0.191570	0.097132	0.198762	0.977497	-0.070666
10989		9.698159	0.992297	-0.828554	-0.005344	0.000698	-0.002329	1.000000	-0.000067	0.000009	-0.000029	-0.081542	0.088691	0.992716	0.976578	-0.191875	0.097359	0.199112	0.977404	-0.070968
10990		9.753445	0.982668	-0.761057	-0.000975	0.003534	0.000360	1.000000	-0.000012	0.000044	0.000005	-0.081683	0.088891	0.992686	0.976547	-0.191942	0.097543	0.199209	0.977372	-0.071128
10991		9.736072	0.953625	-0.784385	0.007056	0.003215	0.000727	1.000000	0.000088	0.000040	0.000009	-0.081647	0.089064	0.992674	0.976752	-0.190932	0.097468	0.198214	0.977554	-0.071404
10992		9.686704	0.947815	-0.800471	0.018841	0.006614	-0.000298	1.000000	0.000236	0.000083	-0.000004	-0.081694	0.089070	0.992669	0.976942	-0.189973	0.097445	0.197259	0.977741	-0.071496
10993		9.686265	0.961483	-0.779801	0.014331	0.005720	-0.001794	1.000000	0.000179	0.000072	-0.000022	-0.081797	0.089072	0.992661	0.977052	-0.189373	0.097503	0.196668	0.977857	-0.071538
10994		9.701464	0.928990	-0.750652	0.003086	0.003254	-0.001321	1.000000	0.000039	0.000041	-0.000017	-0.081961	0.089279	0.992629	0.976990	-0.189584	0.097721	0.196911	0.977797	-0.071686
10995		9.684859	0.934723	-0.826851	0.002142	0.002484	-0.008092	1.000000	0.000027	0.000031	-0.000101	-0.082219	0.089405	0.992596	0.977033	-0.189228	0.097974	0.196586	0.977855	-0.071793
10996		9.718887	1.035383	-0.851012	-0.004173	0.003675	-0.003382	1.000000	-0.000052	0.000046	-0.000042	-0.082286	0.089470	0.992585	0.977078	-0.188967	0.098033	0.196336	0.977899	-0.071870
10997		9.727482	1.010139	-0.860594	-0.010958	0.005160	-0.000169	1.000000	-0.000137	0.000065	-0.000002	-0.082358	0.089488	0.992577	0.977080	-0.188916	0.098104	0.196293	0.977907	-0.071878
10998		9.691078	0.968701	-0.806319	-0.006479	0.007643	0.000896	1.000000	-0.000081	0.000096	0.000011	-0.082416	0.089438	0.992577	0.977109	-0.188752	0.098139	0.196128	0.977944	-0.071835
10999		9.701064	0.887769	-0.761669	0.001950	0.008844	-0.001871	1.000000	0.000024	0.000111	-0.000023	-0.082617	0.089563	0.992549	0.977066	-0.188852	0.098369	0.196255	0.977913	-0.071906
11000		9.725313	0.960177	-0.780368	0.002654	0.007723	-0.001516	1.000000	0.000033	0.000097	-0.000019	-0.082764	0.089436	0.992548	0.977076	-0.188744	0.098481	0.196145	0.977945	-0.071764
11001		9.757012	0.975646	-0.807889	0.002096	0.008262	0.000711	1.000000	0.000026	0.000103	0.000009	-0.082842	0.089458	0.992539	0.977050	-0.188833	0.098569	0.196242	0.977926	-0.071762
11002		9.712864	1.026727	-0.716587	0.016430	0.008230	-0.001951	1.000000	0.000205	0.000103	-0.000024	-0.083015	0.089520	0.992519	0.977053	-0.188726	0.098744	0.196154	0.977941	-0.071799
11003		9.723483	0.956539	-0.733918	0.020425	0.008085	0.002196	1.000000	0.000255	0.000101	0.000027	-0.083076	0.089385	0.992526	0.977132	-0.188313	0.098747	0.195732	0.978033	-0.071697
11004		9.722297	0.927865	-0.781456	0.018008	0.003934	-0.000334	1.000000	0.000225	0.000049	-0.000004	-0.083110	0.089656	0.992499	0.977259	-0.187634	0.098783	0.195083	0.978139	-0.072023
11005		9.717719	0.948671	-0.791019	0.026016	0.005211	-0.000399	1.000000	0.000325	0.000065	-0.000005	-0.083196	0.089703	0.992488	0.977382	-0.186970	0.098828	0.194430	0.978262	-0.072119
11006		9.731532	1.031722	-0.829129	0.015832	0.006078	0.000636	1.000000	0.000198	0.000076	0.000008	-0.083205	0.089682	0.992489	0.977571	-0.186014	0.098763	0.193474	0.978446	-0.072193
11007		9.678381	1.030174	-0.823889	0.005534	0.007302	0.003297	1.000000	0.000069	0.000091	0.000041	-0.083210	0.089672	0.992489	0.977603	-0.185851	0.098753	0.193311	0.978478	-0.072199
11008		9.746536	0.952810	-0.814718	-0.003102	0.009740	0.004724	1.000000	-0.000039	0.000122	0.000059	-0.083191	0.089659	0.992492	0.977573	-0.186015	0.098744	0.193472	0.978448	-0.072173
11009		9.683196	0.959869	-0.775876	0.003768	0.010845	0.003237	1.000000	0.000047	0.000136	0.000040	-0.083171	0.089529	0.992505	0.977670	-0.185542	0.098665	0.192984	0.978549	-0.072098
11010		9.741662	0.963310	-0.808908	-0.001870	0.011028	0.006196	1.000000	-0.000023	0.000138	0.000077	-0.083113	0.089472	0.992516	0.977685	-0.185504	0.098593	0.192937	0.978562	-0.072057
11011		9.736337	0.949640	-0.763592	-0.002085	0.010383	0.005662	1.000000	-0.000026	0.000130	0.000071	-0.083095	0.089351	0.992528	0.977638	-0.185760	0.098571	0.193180	0.978524	-0.071917
11012		9.724176	0.978761	-0.729395	0.004710	0.010261	0.006229	1.000000	0.000059	0.000128	0.000078	-0.083003	0.089279	0.992542	0.977790	-0.185045	0.098414	0.192451	0.978666	-0.071937
11013		9.729922	0.967024	-0.778739	0.004778	0.007090	0.007090	1.000000	0.000060	0.000089	0.000089	-0.082915	0.089217	0.992555	0.977850	-0.184792	0.098297	0.192186	0.978720	-0.071919
11014		9.719213	0.992799	-0.826127	-0.000676	0.009507	0.010147	1.000000	-0.000008	0.000119	0.000127	-0.082756	0.089129	0.992576	0.977898	-0.184636	0.098111	0.192010	0.978757	-0.071880
11015		9.702342	0.959055	-0.796944	-0.001174	0.011387	0.008217	1.000000	-0.000015	0.000142	0.000103	-0.082764	0.088952	0.992591	0.977762	-0.185339	0.098137	0.192696	0.978640	-0.071635
11016		9.757121	0.902679	-0.744418	-0.001717	0.010456	0.008769	1.000000	-0.000021	0.000131	0.000110	-0.082677	0.088885	0.992605	0.977766	-0.185370	0.098041	0.192714	0.978641	-0.071583
11017		9.715999	0.941682	-0.713440	0.003926	0.010270	0.005813	1.000000	0.000049	0.000128	0.000073	-0.082628	0.088711	0.992624	0.977803	-0.185223	0.097947	0.192546	0.978684	-0.071437
11018		9.698596	0.950125	-0.757678	0.004161	0.009441	0.004675	1.000000	0.000052	0.000118	0.000058	-0.082616	0.088676	0.992628	0.977822	-0.185137	0.097923	0.192455	0.978704	-0.071414
11019		9.759233	0.931829	-0.790404	0.003726	0.008149	0.003609	1.000000	0.000047	0.000102	0.000045	-0.082664	0.088665	0.992625	0.977798	-0.185237	0.097975	0.192558	0.978686	-0.071384
11020		9.720744	0.933757	-0.727973	0.003353	0.009558	0.002161	1.000000	0.000042	0.000119	0.000027	-0.082744	0.088617	0.992623	0.977804	-0.185167	0.098040	0.192489	0.978703	-0.071328
11021		9.730397	0.976791	-0.761340	0.005754	0.008062	0.001721	1.000000	0.000072	0.000101	0.000022	-0.082887	0.088660	0.992607	0.977694	-0.185651	0.098224	0.192987	0.978608	-0.071294
11022		9.764462	0.969549	-0.788255	0.005006	0.006374	0.003844	1.000000	0.000063	0.000080	0.000048	-0.082908	0.088683	0.992603	0.977721	-0.185499	0.098238	0.192839	0.978634	-0.071328
11023		9.704953	0.971847	-0.771259	0.002249	0.009172	0.004936	1.000000	0.000028	0.000115	0.000062	-0.082835	0.088585	0.992618	0.977759	-0.185353	0.098137	0.192679	0.978671	-0.071261
11024		9.711687	0.966374	-0.780365	0.004481	0.011210	0.005249	1.000000	0.000056	0.000140	0.000066	-0.082772	0.088432	0.992637	0.977874	-0.184818	0.098006	0.192125	0.978786	-0.071177
11025		9.706505	0.916934	-0.763225	0.003221	0.011509	0.003340	1.000000	0.000040	0.000144	0.000042	-0.082786	0.088208	0.992656	0.977929	-0.184553	0.097957	0.191839	0.978856	-0.070982
11026		9.736295	0.950785	-0.740116	-0.003654	0.009043	0.001046	1.000000	-0.000046	0.000113	0.000013	-0.082947	0.088192	0.992644	0.977804	-0.185108	0.098153	0.192403	0.978753	-0.070881
11027		9.729790	0.932308	-0.734980	-0.000598	0.009487	0.002203	1.000000	-0.000007	0.000119	0.000028	-0.083105	0.088120	0.992637	0.977732	-0.185400	0.098316	0.192699	0.978704	-0.070750
11028		9.719024	0.957070	-0.731663	0.001926	0.007520	0.002249	1.000000	0.000024	0.000094	0.000028	-0.083172	0.088177	0.992626	0.977789	-0.185072	0.098369	0.192381	0.978761	-0.070825
11029		9.710478	0.962807	-0.778378	0.005516	0.009005	0.000751	1.000000	0.000069	0.000113	0.000009	-0.083342	0.088203	0.992610	0.977763	-0.185117	0.098545	0.192440	0.978750	-0.070813
11030		9.719520	0.958954	-0.778280	0.002228	0.009393	0.000726	1.000000	0.000028	0.000117	0.000009	-0.083503	0.088158	0.992600	0.977787	-0.184920	0.098680	0.192251	0.978791	-0.070758
11031		9.737296	0.948882	-0.729300	-0.000046	0.010422	0.001643	1.000000	-0.000001	0.000130	0.000021	-0.083562	0.088146	0.992596	0.977765	-0.185001	0.098743	0.192335	0.978777	-0.070727
11032		9.730782	0.930530	-0.724017	0.004025	0.010137	-0.000024	1.000000	0.000050	0.000127	-0.000000	-0.083680	0.088015	0.992598	0.977777	-0.184893	0.098825	0.192223	0.978809	-0.070587
11033		9.720642	0.941977	-0.740136	0.004507	0.008367	-0.000193	1.000000	0.000056	0.000105	-0.000002	-0.083648	0.087918	0.992609	0.977969	-0.183937	0.098706	0.191256	0.978998	-0.070595
11034		9.735879	0.972831	-0.774007	0.005946	0.010412	-0.000291	1.000000	0.000074	0.000130	-0.000004	-0.083825	0.087821	0.992603	0.977968	-0.183867	0.098856	0.191188	0.979020	-0.070474
11035		9.715288	0.993134	-0.757717	0.000218	0.008006	0.000938	1.000000	0.000003	0.000100	0.000012	-0.083939	0.087859	0.992590	0.977955	-0.183870	0.098977	0.191204	0.979016	-0.070488
11036		9.715429	0.931701	-0.741699	-0.002962	0.009404	0.003060	1.000000	-0.000037	0.000118	0.000038	-0.083930	0.087808	0.992595	0.977952	-0.183894	0.098959	0.191222	0.979016	-0.070437
11037		9.732939	0.960234	-0.715193	0.002784	0.010331	0.000164	1.000000	0.000035	0.000129	0.000002	-0.083978	0.087729	0.992598	0.978029	-0.183484	0.098962	0.190808	0.979100	-0.070393
11038		9.725234	0.972168	-0.721776	0.002812	0.008744	0.000599	1.000000	0.000035	0.000109	0.000007	-0.083977	0.087617	0.992608	0.978157	-0.182834	0.098893	0.190147	0.979232	-0.070350
11039		9.717537	0.984013	-0.728442	-0.000929	0.009317	0.001174	1.000000	-0.000012	0.000116	0.000015	-0.084130	0.087577	0.992599	0.978041	-0.183360	0.099074	0.190679	0.979137	-0.070227
11040		9.731080	0.959113	-0.718049	-0.004532	0.007939	0.000568	1.000000	-0.000057	0.000099	0.000007	-0.084248	0.087620	0.992585	0.978011	-0.183449	0.099205	0.190781	0.979117	-0.070238
11041		9.742629	0.917296	-0.686513	-0.000067	0.004655	0.000792	1.000000	-0.000001	0.000058	0.000010	-0.084289	0.087661	0.992578	0.978048	-0.183230	0.099238	0.190569	0.979154	-0.070292
11042		9.710386	0.918561	-0.687464	0.003664	0.004191	-0.001884	1.000000	0.000046	0.000052	-0.000024	-0.084437	0.087794	0.992554	0.978082	-0.182968	0.099390	0.190331	0.979191	-0.070421
11043		9.713312	0.924977	-0.778233	0.000915	0.005621	-0.004569	1.000000	0.000011	0.000070	-0.000057	-0.084602	0.087822	0.992537	0.978145	-0.182554	0.099528	0.189932	0.979266	-0.070458
11044		9.732795	0.994140	-0.765837	-0.005295	0.004986	-0.003176	1.000000	-0.000066	0.000062	-0.000040	-0.084728	0.087905	0.992519	0.978161	-0.182400	0.099657	0.189796	0.979287	-0.070531
11045		9.760132	0.970197	-0.789665	-0.012340	0.007426	-0.000968	1.000000	-0.000154	0.000093	-0.000012	-0.084885	0.087929	0.992503	0.978065	-0.182810	0.099846	0.190219	0.979208	-0.070482
11046		9.686506	0.973920	-0.738970	-0.008255	0.007033	-0.000528	1.000000	-0.000103	0.000088	-0.000007	-0.085044	0.087975	0.992486	0.977940	-0.183367	0.100052	0.190791	0.979100	-0.070440
11047		9.741650	0.989366	-0.711561	-0.000004	0.007471	-0.001698	1.000000	-0.000000	0.000093	-0.000021	-0.085186	0.088022	0.992469	0.977909	-0.183446	0.100206	0.190884	0.979081	-0.070451
11048		9.733331	1.056599	-0.772072	0.008120	0.009751	0.000414	1.000000	0.000102	0.000122	0.000005	-0.085322	0.087984	0.992461	0.977900	-0.183426	0.100332	0.190870	0.979088	-0.070389
11049		9.714130	0.987756	-0.780869	-0.003068	0.009771	0.004667	1.000000	-0.000038	0.000122	0.000058	-0.085293	0.087843	0.992476	0.977916	-0.183371	0.100272	0.190800	0.979111	-0.070262
11050		9.716440	0.904309	-0.763519	-0.000509	0.012205	0.001793	1.000000	-0.000006	0.000153	0.000022	-0.085338	0.087694	0.992485	0.977942	-0.183232	0.100278	0.190649	0.979151	-0.070123
11051		9.719834	0.971695	-0.724793	-0.011626	0.013670	-0.000216	1.000000	-0.000145	0.000171	-0.000003	-0.085446	0.087531	0.992490	0.977885	-0.183487	0.100371	0.190894	0.979117	-0.069917
11052		9.745509	0.972311	-0.657386	-0.014287	0.010229	0.000504	1.000000	-0.000179	0.000128	0.000006	-0.085571	0.087385	0.992493	0.977848	-0.183627	0.100476	0.191028	0.979104	-0.069736
11053		9.744840	1.024589	-0.657606	0.006069	0.011430	0.001860	1.000000	0.000076	0.000143	0.000023	-0.085635	0.087323	0.992492	0.977864	-0.183516	0.100520	0.190916	0.979130	-0.069675
11054		9.717526	0.964644	-0.765843	0.011082	0.009079	0.001538	1.000000	0.000139	0.000113	0.000019	-0.085771	0.087241	0.992488	0.977878	-0.183380	0.100628	0.190781	0.979163	-0.069582
11055		9.732418	0.931645	-0.735281	0.000111	0.008485	0.000444	1.000000	0.000001	0.000106	0.000006	-0.085891	0.087199	0.992481	0.977867	-0.183382	0.100738	0.190787	0.979167	-0.069518
11056		9.729762	0.928795	-0.692088	-0.012091	0.006602	-0.002126	1.000000	-0.000151	0.000083	-0.000027	-0.086062	0.087260	0.992461	0.977770	-0.183781	0.100947	0.191204	0.979086	-0.069503
11057		9.734929	1.013828	-0.676502	-0.003378	0.006746	-0.001786	1.000000	-0.000042	0.000084	-0.000022	-0.086215	0.087303	0.992444	0.977745	-0.183825	0.101109	0.191264	0.979074	-0.069511
11058		9.722133	1.041284	-0.733654	0.013910	0.008985	0.000076	1.000000	0.000174	0.000112	0.000001	-0.086324	0.087227	0.992441	0.977857	-0.183200	0.101157	0.190639	0.979198	-0.069481
11059		9.744998	1.014647	-0.776221	0.001835	0.007786	0.005955	1.000000	0.000023	0.000097	0.000074	-0.086275	0.087168	0.992451	0.977867	-0.183181	0.101096	0.190611	0.979207	-0.069434
11060		9.718138	0.960477	-0.703556	0.005752	0.011041	0.005042	1.000000	0.000072	0.000138	0.000063	-0.086146	0.086962	0.992480	0.977972	-0.182729	0.100897	0.190130	0.979310	-0.069305
11061		9.713267	0.955553	-0.669274	0.005414	0.010864	0.004025	1.000000	0.000068	0.000136	0.000050	-0.086175	0.086843	0.992488	0.978024	-0.182459	0.100884	0.189850	0.979371	-0.069211
11062		9.736343	0.989681	-0.725450	0.002526	0.006771	0.004217	1.000000	0.000032	0.000085	0.000053	-0.086179	0.086911	0.992482	0.978018	-0.182482	0.100903	0.189879	0.979360	-0.069275
11063		9.733439	1.001974	-0.713602	0.003632	0.008640	0.003105	1.000000	0.000045	0.000108	0.000039	-0.086169	0.086783	0.992494	0.978095	-0.182102	0.100842	0.189486	0.979443	-0.069190
11064		9.718396	0.928183	-0.743368	0.008466	0.011418	0.003089	1.000000	0.000106	0.000143	0.000039	-0.086223	0.086702	0.992496	0.978136	-0.181868	0.100863	0.189249	0.979493	-0.069126
11065		9.725630	0.967966	-0.735116	0.001135	0.009132	0.001377	1.000000	0.000014	0.000114	0.000017	-0.086285	0.086592	0.992500	0.978180	-0.181621	0.100886	0.188995	0.979549	-0.069031
11066		9.720869	0.947814	-0.669932	-0.010633	0.008546	-0.000140	1.000000	-0.000133	0.000107	-0.000002	-0.086346	0.086452	0.992507	0.978153	-0.181741	0.100928	0.189104	0.979539	-0.068871
11067		9.736850	0.984721	-0.663962	-0.002690	0.007106	0.000233	1.000000	-0.000034	0.000089	0.000003	-0.086467	0.086394	0.992502	0.978130	-0.181802	0.101041	0.189168	0.979533	-0.068785
11068		9.719811	1.032930	-0.731249	0.009731	0.009747	0.001241	1.000000	0.000122	0.000122	0.000016	-0.086468	0.086315	0.992508	0.978237	-0.181256	0.100988	0.188615	0.979641	-0.068764
11069		9.714123	1.000204	-0.745628	0.004176	0.011061	0.004206	1.000000	0.000052	0.000138	0.000053	-0.086537	0.086248	0.992508	0.978193	-0.181455	0.101057	0.188811	0.979610	-0.068665
11070		9.713859	0.996745	-0.692123	-0.003310	0.012318	0.003227	1.000000	-0.000041	0.000154	0.000040	-0.086586	0.086068	0.992520	0.978226	-0.181274	0.101059	0.188616	0.979659	-0.068498
11071		9.734786	0.914555	-0.689183	0.000653	0.012394	0.003194	1.000000	0.000008	0.000155	0.000040	-0.086621	0.085847	0.992536	0.978273	-0.181036	0.101034	0.188358	0.979723	-0.068300
11072		9.759209	1.021600	-0.678834	0.003507	0.010599	0.004274	1.000000	0.000044	0.000132	0.000053	-0.086558	0.085667	0.992557	0.978376	-0.180549	0.100904	0.187850	0.979828	-0.068186
11073		9.723380	0.967916	-0.694353	0.005196	0.011707	0.005145	1.000000	0.000065	0.000146	0.000064	-0.086515	0.085487	0.992576	0.978445	-0.180232	0.100806	0.187512	0.979902	-0.068052
11074		9.710430	0.991386	-0.699938	-0.003399	0.011096	0.005274	1.000000	-0.000042	0.000139	0.000066	-0.086513	0.085394	0.992584	0.978435	-0.180297	0.100791	0.187567	0.979898	-0.067954
11075		9.728742	0.911997	-0.616396	-0.002140	0.009529	0.001327	1.000000	-0.000027	0.000119	0.000017	-0.086561	0.085298	0.992588	0.978437	-0.180270	0.100818	0.187533	0.979912	-0.067854
11076		9.718153	0.959719	-0.604416	0.003300	0.008684	-0.002119	1.000000	0.000041	0.000109	-0.000026	-0.086763	0.085322	0.992569	0.978399	-0.180357	0.101028	0.187637	0.979894	-0.067831
11077		9.737498	0.941203	-0.676728	0.006948	0.006774	0.001479	1.000000	0.000087	0.000085	0.000018	-0.086823	0.085344	0.992561	0.978455	-0.180031	0.101068	0.187317	0.979952	-0.067874
11078		9.718056	1.031199	-0.686179	0.004127	0.005603	-0.002924	1.000000	0.000052	0.000070	-0.000037	-0.086910	0.085372	0.992551	0.978524	-0.179619	0.101131	0.186915	0.980025	-0.067928
11079		9.723344	0.996634	-0.694262	0.005951	0.004649	-0.001125	1.000000	0.000074	0.000058	-0.000014	-0.086954	0.085485	0.992538	0.978616	-0.179102	0.101160	0.186413	0.980110	-0.068083
11080		9.721334	1.018332	-0.694018	0.006510	0.005477	0.000419	1.000000	0.000081	0.000068	0.000005	-0.087013	0.085467	0.992534	0.978636	-0.178964	0.101205	0.186278	0.980136	-0.068069
11081		9.745509	0.984351	-0.716657	0.002768	0.006053	0.000975	1.000000	0.000035	0.000076	0.000012	-0.087065	0.085427	0.992533	0.978688	-0.178672	0.101229	0.185985	0.980193	-0.068051
11082		9.725269	0.993964	-0.630719	0.000426	0.002784	0.002716	1.000000	0.000005	0.000035	0.000034	-0.087058	0.085461	0.992531	0.978732	-0.178439	0.101212	0.185755	0.980233	-0.068109
11083		9.734730	0.969901	-0.691243	0.003022	0.003521	0.002388	1.000000	0.000038	0.000044	0.000030	-0.087058	0.085547	0.992523	0.978771	-0.178222	0.101213	0.185548	0.980265	-0.068216
11084		9.704291	0.942693	-0.731660	-0.000602	0.003625	0.003431	1.000000	-0.000008	0.000045	0.000043	-0.087025	0.085580	0.992523	0.978834	-0.177902	0.101164	0.185230	0.980320	-0.068287
11085		9.731836	0.981704	-0.679426	-0.003435	0.003830	0.002787	1.000000	-0.000043	0.000048	0.000035	-0.087106	0.085647	0.992511	0.978773	-0.178177	0.101276	0.185517	0.980264	-0.068309
11086		9.729240	1.038906	-0.651398	-0.002845	0.001583	0.003114	1.000000	-0.000036	0.000020	0.000039	-0.087052	0.085722	0.992509	0.978823	-0.177934	0.101220	0.185278	0.980302	-0.068417
11087		9.715811	1.001707	-0.645359	0.002469	0.002479	0.005045	1.000000	0.000031	0.000031	0.000063	-0.087054	0.085837	0.992499	0.978778	-0.178157	0.101259	0.185513	0.980251	-0.068506
11088		9.713074	0.971628	-0.702811	0.006887	0.002367	0.004418	1.000000	0.000086	0.000030	0.000055	-0.087019	0.085987	0.992489	0.978820	-0.177940	0.101237	0.185308	0.980277	-0.068682
11089		9.726446	0.945835	-0.694051	0.001911	0.001651	0.003501	1.000000	0.000024	0.000021	0.000044	-0.086965	0.086064	0.992487	0.978869	-0.177700	0.101181	0.185073	0.980314	-0.068792
11090		9.720485	0.993529	-0.665131	0.002486	0.000889	0.005487	1.000000	0.000031	0.000011	0.000069	-0.086935	0.086162	0.992481	0.978885	-0.177623	0.101165	0.185004	0.980319	-0.068901
11091		9.727373	1.010670	-0.667922	0.005213	-0.000225	0.001887	1.000000	0.000065	-0.000003	0.000024	-0.086991	0.086377	0.992457	0.978870	-0.177652	0.101262	0.185059	0.980295	-0.069098
11092		9.701509	0.984511	-0.690082	0.007564	0.002832	0.004345	1.000000	0.000095	0.000035	0.000054	-0.086986	0.086490	0.992448	0.978911	-0.177422	0.101262	0.184840	0.980327	-0.069232
11093		9.719112	0.953860	-0.702426	0.000578	-0.000867	0.004086	1.000000	0.000007	-0.000011	0.000051	-0.086984	0.086634	0.992436	0.978918	-0.177375	0.101283	0.184808	0.980323	-0.069379
11094		9.729473	0.964108	-0.675505	0.007355	0.000802	0.000059	1.000000	0.000092	0.000010	0.000001	-0.087043	0.086827	0.992414	0.978968	-0.177057	0.101354	0.184514	0.980363	-0.069590
11095		9.719683	0.997471	-0.685340	0.009400	0.000499	0.002387	1.000000	0.000117	0.000006	0.000030	-0.086998	0.086953	0.992406	0.979066	-0.176546	0.101298	0.184013	0.980444	-0.069774
11096		9.742721	1.009247	-0.752243	0.010533	0.000673	0.003814	1.000000	0.000132	0.000008	0.000048	-0.086960	0.087101	0.992397	0.979116	-0.176287	0.101269	0.183767	0.980478	-0.069952
11097		9.746630	1.022989	-0.713629	0.004061	0.002471	0.005869	1.000000	0.000051	0.000031	0.000073	-0.086885	0.087190	0.992396	0.979179	-0.175981	0.101189	0.183466	0.980525	-0.070084
11098		9.740504	0.928476	-0.715679	0.007675	0.003851	0.006482	1.000000	0.000096	0.000048	0.000081	-0.086791	0.087201	0.992403	0.979257	-0.175612	0.101072	0.183091	0.980590	-0.070151
11099		9.716688	0.960377	-0.691494	0.004653	0.000121	0.008297	1.000000	0.000058	0.000002	0.000104	-0.086618	0.087291	0.992410	0.979323	-0.175347	0.100899	0.182824	0.980629	-0.070297
11100		9.708230	1.000582	-0.711615	0.007548	0.005810	0.007649	1.000000	0.000094	0.000073	0.000096	-0.086421	0.087226	0.992433	0.979472	-0.174660	0.100643	0.182117	0.980758	-0.070341
11101		9.695123	0.984865	-0.696446	0.005755	0.003582	0.006736	1.000000	0.000072	0.000045	0.000084	-0.086291	0.087327	0.992435	0.979538	-0.174362	0.100512	0.181820	0.980802	-0.070495
11102		9.745431	0.958248	-0.666141	0.005198	0.002648	0.007293	1.000000	0.000065	0.000033	0.000091	-0.086166	0.087393	0.992440	0.979616	-0.174004	0.100375	0.181461	0.980859	-0.070619
11103		9.721611	0.990416	-0.642016	0.011102	0.001504	0.005350	1.000000	0.000139	0.000019	0.000067	-0.086139	0.087537	0.992430	0.979657	-0.173785	0.100359	0.181254	0.980885	-0.070786
11104		9.723173	0.938810	-0.689673	0.015540	-0.000200	0.005164	1.000000	0.000194	-0.000002	0.000065	-0.086059	0.087658	0.992426	0.979737	-0.173380	0.100272	0.180857	0.980946	-0.070961
11105		9.718081	0.972638	-0.681045	0.009424	-0.001090	0.002824	1.000000	0.000118	-0.000014	0.000035	-0.085980	0.087808	0.992420	0.979823	-0.172944	0.100190	0.180431	0.981010	-0.071167
11106		9.738421	0.987319	-0.667437	0.016232	-0.001222	0.003433	1.000000	0.000203	-0.000015	0.000043	-0.086017	0.088017	0.992398	0.979828	-0.172875	0.100259	0.180386	0.981003	-0.071371
11107		9.705250	1.033489	-0.713535	0.015902	-0.001604	0.006615	1.000000	0.000199	-0.000020	0.000083	-0.085906	0.088169	0.992394	0.979927	-0.172378	0.100142	0.179896	0.981077	-0.071591
11108		9.736042	0.961299	-0.687048	0.013754	-0.002423	0.004246	1.000000	0.000172	-0.000030	0.000053	-0.085846	0.088381	0.992381	0.980011	-0.171931	0.100088	0.179467	0.981136	-0.071854
11109		9.714153	0.891228	-0.708120	0.011361	-0.000916	0.004658	1.000000	0.000142	-0.000011	0.000058	-0.085798	0.088569	0.992368	0.980049	-0.171729	0.100060	0.179281	0.981155	-0.072068
11110		9.729647	0.963111	-0.676887	0.008301	-0.001363	0.003490	1.000000	0.000104	-0.000017	0.000044	-0.085732	0.088736	0.992359	0.980139	-0.171261	0.099991	0.178825	0.981221	-0.072291
11111		9.708245	1.035225	-0.667036	0.008874	-0.002019	0.003376	1.000000	0.000111	-0.000025	0.000042	-0.085722	0.088957	0.992340	0.980177	-0.171031	0.100003	0.178617	0.981242	-0.072533
11112		9.733115	0.986113	-0.710974	0.006276	-0.002853	0.005807	1.000000	0.000078	-0.000036	0.000073	-0.085635	0.089172	0.992328	0.980241	-0.170707	0.099932	0.178309	0.981278	-0.072791
11113		9.714096	0.961108	-0.705657	0.010249	-0.002780	0.005771	1.000000	0.000128	-0.000035	0.000072	-0.085536	0.089319	0.992323	0.980305	-0.170394	0.099837	0.178003	0.981320	-0.072985
11114		9.720708	0.955604	-0.717792	0.008759	-0.001548	0.002887	1.000000	0.000109	-0.000019	0.000036	-0.085493	0.089556	0.992306	0.980357	-0.170108	0.099815	0.177738	0.981348	-0.073254
11115		9.717636	0.967830	-0.708598	0.002084	-0.003575	0.005314	1.000000	0.000026	-0.000045	0.000066	-0.085365	0.089786	0.992296	0.980431	-0.169749	0.099704	0.177393	0.981389	-0.073539
11116		9.727719	0.955175	-0.691249	0.005612	-0.004805	0.004226	1.000000	0.000070	-0.000060	0.000053	-0.085260	0.090052	0.992281	0.980486	-0.169474	0.099626	0.177137	0.981412	-0.073846
11117		9.699765	0.934410	-0.684237	0.007980	-0.003132	0.002918	1.000000	0.000100	-0.000039	0.000036	-0.085263	0.090326	0.992256	0.980498	-0.169380	0.099671	0.177071	0.981403	-0.074122
11118		9.726818	0.983542	-0.705733	0.006768	-0.007609	0.002347	1.000000	0.000085	-0.000095	0.000029	-0.085224	0.090718	0.992223	0.980506	-0.169315	0.099698	0.177043	0.981378	-0.074520
11119		9.728737	0.961186	-0.706769	0.005974	-0.007603	0.001934	1.000000	0.000075	-0.000095	0.000024	-0.085244	0.091045	0.992192	0.980508	-0.169263	0.099772	0.177025	0.981357	-0.074842
11120		9.687499	0.965661	-0.709285	0.006325	-0.008911	0.001293	1.000000	0.000079	-0.000111	0.000016	-0.085263	0.091456	0.992152	0.980511	-0.169194	0.099859	0.176998	0.981330	-0.075248
11121		9.726648	0.923472	-0.748610	0.005188	-0.009088	-0.000132	1.000000	0.000065	-0.000114	-0.000002	-0.085329	0.091852	0.992110	0.980493	-0.169218	0.099996	0.177068	0.981289	-0.075621
11122		9.728652	0.982665	-0.704985	0.004162	-0.008243	0.000581	1.000000	0.000052	-0.000103	0.000007	-0.085349	0.092135	0.992082	0.980532	-0.168962	0.100047	0.176842	0.981307	-0.075921
11123		9.755067	0.971252	-0.713067	0.008495	-0.009575	0.001998	1.000000	0.000106	-0.000120	0.000025	-0.085323	0.092500	0.992050	0.980578	-0.168685	0.100065	0.176600	0.981320	-0.076310
11124		9.697571	0.971201	-0.781950	0.016194	-0.006902	0.000497	1.000000	0.000202	-0.000086	0.000006	-0.085418	0.092877	0.992007	0.980596	-0.168492	0.100211	0.176453	0.981318	-0.076683
11125		9.718842	1.010719	-0.811514	0.005488	-0.002741	0.003286	1.000000	0.000069	-0.000034	0.000041	-0.085369	0.093051	0.991995	0.980644	-0.168234	0.100173	0.176208	0.981345	-0.076888
11126		9.709156	0.972903	-0.736911	0.002086	-0.003471	0.003213	1.000000	0.000026	-0.000043	0.000040	-0.085327	0.093312	0.991974	0.980633	-0.168292	0.100183	0.176289	0.981311	-0.077145
11127		9.721903	0.983622	-0.701366	0.008214	-0.002475	0.003432	1.000000	0.000103	-0.000031	0.000043	-0.085248	0.093489	0.991964	0.980705	-0.167920	0.100106	0.175929	0.981358	-0.077370
11128		9.761548	0.962773	-0.730604	0.011507	-0.001372	0.005113	1.000000	0.000144	-0.000017	0.000064	-0.085205	0.093616	0.991956	0.980742	-0.167726	0.100071	0.175745	0.981379	-0.077522
11129		9.718178	0.965646	-0.741209	0.016634	-0.002610	0.004840	1.000000	0.000208	-0.000033	0.000060	-0.085163	0.093828	0.991939	0.980814	-0.167322	0.100034	0.175360	0.981427	-0.077778
11130		9.696669	0.956381	-0.776500	0.010371	-0.001549	0.003688	1.000000	0.000130	-0.000019	0.000046	-0.085219	0.094031	0.991915	0.980805	-0.167318	0.100126	0.175380	0.981409	-0.077967
11131		9.738191	0.972553	-0.768551	0.003348	-0.003756	0.005120	1.000000	0.000042	-0.000047	0.000064	-0.085138	0.094229	0.991903	0.980818	-0.167271	0.100077	0.175347	0.981398	-0.078180
11132		9.721275	1.023203	-0.748664	0.010382	-0.001643	0.005783	1.000000	0.000130	-0.000021	0.000072	-0.085062	0.094404	0.991893	0.980865	-0.167037	0.100014	0.175125	0.981421	-0.078389
11133		9.721591	0.946523	-0.754264	0.013574	-0.001659	0.007422	1.000000	0.000170	-0.000021	0.000093	-0.084934	0.094559	0.991890	0.980955	-0.166590	0.099879	0.174683	0.981482	-0.078609
11134		9.742743	0.962223	-0.791455	0.011631	-0.000340	0.007239	1.000000	0.000145	-0.000004	0.000090	-0.084825	0.094720	0.991883	0.981006	-0.166349	0.099780	0.174450	0.981507	-0.078810
11135		9.730271	0.991090	-0.760570	0.008340	-0.000042	0.009304	1.000000	0.000104	-0.000001	0.000116	-0.084638	0.094846	0.991887	0.981070	-0.166081	0.099596	0.174180	0.981540	-0.078994
11136		9.720186	0.961775	-0.756176	0.006052	0.001091	0.008110	1.000000	0.000076	0.000014	0.000101	-0.084493	0.094897	0.991895	0.981137	-0.165781	0.099437	0.173873	0.981586	-0.079100
11137		9.719376	0.935360	-0.713988	0.003794	-0.000952	0.007814	1.000000	0.000047	-0.000012	0.000098	-0.084391	0.095029	0.991891	0.981141	-0.165802	0.099362	0.173900	0.981570	-0.079245
11138		9.721758	0.950195	-0.736156	0.008789	-0.000137	0.006604	1.000000	0.000110	-0.000002	0.000083	-0.084335	0.095175	0.991882	0.981165	-0.165682	0.099322	0.173790	0.981576	-0.079409
11139		9.715269	0.969060	-0.756461	0.007423	-0.000971	0.004659	1.000000	0.000093	-0.000012	0.000058	-0.084265	0.095343	0.991872	0.981210	-0.165448	0.099263	0.173567	0.981599	-0.079610
11140		9.712655	0.944738	-0.774754	0.000833	-0.001776	0.005050	1.000000	0.000010	-0.000022	0.000063	-0.084224	0.095439	0.991866	0.981240	-0.165296	0.099227	0.173422	0.981615	-0.079727
11141		9.737414	0.938231	-0.750364	-0.000554	0.000473	0.004306	1.000000	-0.000007	0.000006	0.000054	-0.084206	0.095566	0.991855	0.981228	-0.165359	0.099236	0.173496	0.981592	-0.079848
11142		9.700858	0.975651	-0.794436	-0.001911	-0.000454	0.004458	1.000000	-0.000024	-0.000006	0.000056	-0.084134	0.095660	0.991852	0.981246	-0.165290	0.099176	0.173430	0.981595	-0.079960
11143		9.725717	0.953331	-0.738431	-0.001471	0.000944	0.003410	1.000000	-0.000018	0.000012	0.000043	-0.084108	0.095678	0.991853	0.981268	-0.165176	0.099144	0.173316	0.981612	-0.079993
11144		9.728569	0.900811	-0.725220	-0.000444	0.000098	0.002695	1.000000	-0.000006	0.000001	0.000034	-0.084101	0.095828	0.991839	0.981260	-0.165210	0.099166	0.173364	0.981592	-0.080138
11145		9.718459	0.927927	-0.774968	0.006471	0.001271	-0.000877	1.000000	0.000081	0.000016	-0.000011	-0.084237	0.095962	0.991814	0.981258	-0.165134	0.099318	0.173313	0.981592	-0.080253
11146		9.714893	1.009701	-0.799815	0.000450	0.001306	0.001047	1.000000	0.000006	0.000016	0.000013	-0.084367	0.096055	0.991794	0.981218	-0.165273	0.099475	0.173472	0.981559	-0.080308
11147		9.729141	1.008929	-0.832612	-0.004697	0.005631	0.002521	1.000000	-0.000059	0.000070	0.000032	-0.084373	0.096084	0.991791	0.981203	-0.165353	0.099491	0.173555	0.981543	-0.080326
11148		9.713356	0.939601	-0.772209	-0.002178	0.003656	0.002589	1.000000	-0.000027	0.000046	0.000032	-0.084404	0.096124	0.991784	0.981196	-0.165370	0.099530	0.173579	0.981536	-0.080359
11149		9.720911	0.963065	-0.734179	0.004180	0.006798	0.004969	1.000000	0.000052	0.000085	0.000062	-0.084394	0.096102	0.991787	0.981233	-0.165170	0.099500	0.173376	0.981572	-0.080360
11150		9.705741	0.985682	-0.750877	0.004540	0.005397	0.006426	1.000000	0.000057	0.000067	0.000080	-0.084302	0.096119	0.991794	0.981265	-0.165038	0.099401	0.173238	0.981592	-0.080405
11151		9.718634	0.952955	-0.780717	0.003169	0.006059	0.006129	1.000000	0.000040	0.000076	0.000077	-0.084217	0.096099	0.991803	0.981278	-0.165014	0.099312	0.173205	0.981598	-0.080403
11152		9.709386	0.953128	-0.726723	0.001239	0.005790	0.006395	1.000000	0.000015	0.000072	0.000080	-0.084159	0.096068	0.991811	0.981305	-0.164902	0.099240	0.173086	0.981620	-0.080393
11153		9.728488	0.936565	-0.708765	0.003625	0.005869	0.005528	1.000000	0.000045	0.000073	0.000069	-0.084140	0.096098	0.991809	0.981310	-0.164877	0.099225	0.173062	0.981621	-0.080429
11154		9.740905	0.881951	-0.747188	0.012382	0.004601	0.002104	1.000000	0.000155	0.000058	0.000026	-0.084114	0.096084	0.991813	0.981399	-0.164389	0.099157	0.172570	0.981705	-0.080469
11155		9.718729	0.962069	-0.756999	0.003191	0.001480	0.003284	1.000000	0.000040	0.000019	0.000041	-0.084121	0.096151	0.991806	0.981428	-0.164213	0.099160	0.172401	0.981728	-0.080551
11156		9.725719	0.979527	-0.759730	-0.000228	0.000844	0.001122	1.000000	-0.000003	0.000011	0.000014	-0.084098	0.096282	0.991795	0.981442	-0.164134	0.099154	0.172334	0.981728	-0.080692
11157		9.701967	0.938497	-0.740711	0.005233	0.001372	0.001409	1.000000	0.000065	0.000017	0.000018	-0.084129	0.096400	0.991781	0.981454	-0.164036	0.099197	0.172251	0.981733	-0.080812
11158		9.736208	0.914833	-0.737398	0.002634	-0.000946	0.002201	1.000000	0.000033	-0.000012	0.000028	-0.084180	0.096595	0.991758	0.981429	-0.164129	0.099289	0.172367	0.981698	-0.080985
11159		9.721219	0.976811	-0.778661	0.007059	0.000521	0.001105	1.000000	0.000088	0.000007	0.000014	-0.084206	0.096702	0.991745	0.981476	-0.163839	0.099310	0.172090	0.981736	-0.081114
11160		9.727038	0.986068	-0.770708	0.003874	0.000447	0.001561	1.000000	0.000048	0.000006	0.000020	-0.084195	0.096830	0.991733	0.981476	-0.163828	0.099320	0.172091	0.981725	-0.081243
11161		9.700615	0.996577	-0.764816	0.001141	0.001680	0.003063	1.000000	0.000014	0.000021	0.000038	-0.084186	0.096930	0.991724	0.981475	-0.163831	0.099328	0.172103	0.981715	-0.081342
11162		9.738016	0.943134	-0.739557	-0.000446	0.001598	0.004339	1.000000	-0.000006	0.000020	0.000054	-0.084116	0.096985	0.991725	0.981503	-0.163708	0.099259	0.171980	0.981730	-0.081420
11163		9.711225	0.946890	-0.772942	0.006018	0.004454	0.003012	1.000000	0.000075	0.000056	0.000038	-0.084095	0.096997	0.991726	0.981565	-0.163361	0.099211	0.171632	0.981787	-0.081471
11164		9.714789	0.971204	-0.805027	0.002836	0.002883	0.001823	1.000000	0.000035	0.000036	0.000023	-0.084140	0.097033	0.991718	0.981564	-0.163338	0.099260	0.171617	0.981787	-0.081501
11165		9.720702	0.964367	-0.764991	-0.003534	0.002735	0.002736	1.000000	-0.000044	0.000034	0.000034	-0.084122	0.097098	0.991713	0.981550	-0.163424	0.099260	0.171708	0.981766	-0.081559
11166		9.733140	0.953107	-0.736148	-0.000242	0.003929	0.002316	1.000000	-0.000003	0.000049	0.000029	-0.084151	0.097193	0.991702	0.981527	-0.163529	0.099314	0.171825	0.981739	-0.081636
11167		9.722821	0.941680	-0.762390	0.004317	0.001844	0.000512	1.000000	0.000054	0.000023	0.000006	-0.084278	0.097326	0.991678	0.981502	-0.163588	0.099468	0.171907	0.981716	-0.081738
11168		9.720989	0.962976	-0.763083	0.008873	0.002754	0.001996	1.000000	0.000111	0.000034	0.000025	-0.084360	0.097418	0.991662	0.981522	-0.163415	0.099551	0.171751	0.981736	-0.081832
11169		9.732226	0.991254	-0.817645	0.004996	0.003805	0.002078	1.000000	0.000062	0.000048	0.000026	-0.084365	0.097435	0.991660	0.981546	-0.163272	0.099547	0.171610	0.981758	-0.081863
11170		9.719780	1.005374	-0.754437	-0.003515	0.002558	0.006923	1.000000	-0.000044	0.000032	0.000087	-0.084246	0.097464	0.991667	0.981544	-0.163351	0.099441	0.171681	0.981742	-0.081904
11171		9.710646	0.894605	-0.733330	0.004769	0.004650	0.003199	1.000000	0.000060	0.000058	0.000040	-0.084229	0.097456	0.991669	0.981569	-0.163219	0.099411	0.171547	0.981765	-0.081912
11172		9.722314	0.929404	-0.748006	0.003746	0.002501	0.000624	1.000000	0.000047	0.000031	0.000008	-0.084317	0.097507	0.991657	0.981575	-0.163124	0.099499	0.171465	0.981775	-0.081956
11173		9.737428	0.989324	-0.795779	-0.001028	0.002347	0.002355	1.000000	-0.000013	0.000029	0.000029	-0.084304	0.097602	0.991648	0.981556	-0.163234	0.099512	0.171583	0.981748	-0.082041
11174		9.715258	0.978824	-0.778818	0.001812	0.003732	0.002533	1.000000	0.000023	0.000047	0.000032	-0.084360	0.097661	0.991638	0.981545	-0.163257	0.099579	0.171617	0.981738	-0.082086
11175		9.718465	0.964619	-0.787761	-0.001029	0.003846	0.003997	1.000000	-0.000013	0.000048	0.000050	-0.084391	0.097709	0.991630	0.981540	-0.163264	0.099619	0.171632	0.981732	-0.082128
11176		9.720913	0.948497	-0.746001	0.004545	0.003996	0.002676	1.000000	0.000057	0.000050	0.000033	-0.084415	0.097749	0.991625	0.981557	-0.163147	0.099640	0.171520	0.981748	-0.082174
11177		9.714131	0.945847	-0.773357	0.006922	0.005661	0.001360	1.000000	0.000087	0.000071	0.000017	-0.084456	0.097767	0.991619	0.981573	-0.163031	0.099674	0.171410	0.981765	-0.082196
11178		9.746262	0.996245	-0.773421	-0.001158	0.005902	0.003058	1.000000	-0.000014	0.000074	0.000038	-0.084404	0.097752	0.991625	0.981578	-0.163033	0.099621	0.171406	0.981766	-0.082191
11179		9.738348	0.969095	-0.758011	0.002374	0.006162	0.003611	1.000000	0.000030	0.000077	0.000045	-0.084439	0.097704	0.991627	0.981577	-0.163027	0.099646	0.171398	0.981772	-0.082139
11180		9.727702	0.918694	-0.760623	0.002385	0.004575	0.004062	1.000000	0.000030	0.000057	0.000051	-0.084430	0.097723	0.991626	0.981588	-0.162968	0.099636	0.171340	0.981780	-0.082165
11181		9.714792	0.926736	-0.736953	0.002949	0.004005	0.001856	1.000000	0.000037	0.000050	0.000023	-0.084474	0.097787	0.991616	0.981582	-0.162966	0.099690	0.171348	0.981774	-0.082220
11182		9.730761	0.956282	-0.772256	0.004774	0.004652	0.003196	1.000000	0.000060	0.000058	0.000040	-0.084516	0.097839	0.991607	0.981574	-0.162983	0.099742	0.171374	0.981766	-0.082261
11183		9.708054	1.050347	-0.762568	0.007626	0.004449	0.003826	1.000000	0.000095	0.000056	0.000048	-0.084478	0.097832	0.991611	0.981611	-0.162797	0.099688	0.171184	0.981797	-0.082280
11184		9.725355	0.944439	-0.778219	0.003413	0.005227	0.004990	1.000000	0.000043	0.000065	0.000062	-0.084376	0.097804	0.991622	0.981649	-0.162638	0.099568	0.171013	0.981827	-0.082287
11185		9.716744	0.946871	-0.775166	0.001480	0.004960	0.005256	1.000000	0.000018	0.000062	0.000066	-0.084291	0.097754	0.991635	0.981670	-0.162571	0.099470	0.170934	0.981843	-0.082259
11186		9.727345	0.956720	-0.746835	0.006021	0.007546	0.004194	1.000000	0.000075	0.000094	0.000052	-0.084312	0.097689	0.991639	0.981681	-0.162503	0.099474	0.170862	0.981860	-0.082198
11187		9.721021	0.960024	-0.734165	0.006376	0.004646	0.004013	1.000000	0.000080	0.000058	0.000050	-0.084335	0.097716	0.991635	0.981695	-0.162407	0.099493	0.170771	0.981873	-0.082231
11188		9.738521	0.945121	-0.776465	0.000900	0.005707	0.003272	1.000000	0.000011	0.000071	0.000041	-0.084399	0.097688	0.991632	0.981684	-0.162437	0.099554	0.170803	0.981871	-0.082189
11189		9.736882	0.965667	-0.776215	0.003190	0.006075	0.006106	1.000000	0.000040	0.000076	0.000076	-0.084359	0.097647	0.991639	0.981697	-0.162388	0.099504	0.170746	0.981883	-0.082161
11190		9.728299	0.967973	-0.773016	0.002164	0.005425	0.005175	1.000000	0.000027	0.000068	0.000065	-0.084260	0.097622	0.991650	0.981718	-0.162325	0.099396	0.170673	0.981896	-0.082159
11191		9.718105	0.939590	-0.766908	0.000676	0.008056	0.006029	1.000000	0.000008	0.000101	0.000075	-0.084193	0.097525	0.991665	0.981718	-0.162377	0.099318	0.170710	0.981897	-0.082071
11192		9.732210	0.958399	-0.739687	0.003293	0.007285	0.004046	1.000000	0.000041	0.000091	0.000051	-0.084172	0.097413	0.991678	0.981751	-0.162211	0.099264	0.170531	0.981936	-0.081981
11193		9.716325	0.936425	-0.772984	0.006264	0.006615	0.005163	1.000000	0.000078	0.000083	0.000065	-0.084154	0.097383	0.991683	0.981769	-0.162118	0.099233	0.170434	0.981954	-0.081964
11194		9.731175	0.941218	-0.765200	0.001924	0.007949	0.003745	1.000000	0.000024	0.000099	0.000047	-0.084195	0.097316	0.991686	0.981752	-0.162199	0.099269	0.170511	0.981947	-0.081884
11195		9.726521	0.975280	-0.754721	-0.001029	0.006945	0.005171	1.000000	-0.000013	0.000087	0.000065	-0.084196	0.097249	0.991692	0.981739	-0.162280	0.099265	0.170585	0.981941	-0.081810
11196		9.729093	0.974659	-0.743190	-0.000579	0.009844	0.005757	1.000000	-0.000007	0.000123	0.000072	-0.084126	0.097164	0.991707	0.981717	-0.162458	0.099195	0.170749	0.981920	-0.081720
11197		9.723170	0.941176	-0.757482	-0.000910	0.006480	0.005656	1.000000	-0.000011	0.000081	0.000071	-0.084114	0.097106	0.991713	0.981706	-0.162534	0.099180	0.170819	0.981913	-0.081658
11198		9.718861	0.938673	-0.774644	-0.002060	0.007884	0.003784	1.000000	-0.000026	0.000099	0.000047	-0.084112	0.097004	0.991723	0.981715	-0.162492	0.099157	0.170765	0.981930	-0.081563
11199		9.729449	0.948713	-0.745666	-0.004220	0.008466	0.005165	1.000000	-0.000053	0.000106	0.000065	-0.084011	0.096887	0.991743	0.981711	-0.162586	0.099045	0.170839	0.981926	-0.081457
11200		9.714927	0.925790	-0.718412	0.001248	0.007488	0.003819	1.000000	0.000016	0.000094	0.000048	-0.083962	0.096806	0.991756	0.981724	-0.162543	0.098979	0.170785	0.981941	-0.081389
11201		9.702338	0.897483	-0.721740	0.008190	0.007054	0.000714	1.000000	0.000102	0.000088	0.000009	-0.083977	0.096741	0.991761	0.981778	-0.162236	0.098957	0.170472	0.981998	-0.081354
11202		9.716467	0.933289	-0.726201	0.011718	0.007398	-0.000822	1.000000	0.000146	0.000092	-0.000010	-0.084042	0.096681	0.991761	0.981826	-0.161927	0.098986	0.170163	0.982055	-0.081315
11203		9.713094	0.992815	-0.758445	0.002032	0.006154	-0.001596	1.000000	0.000025	0.000077	-0.000020	-0.084103	0.096665	0.991757	0.981843	-0.161795	0.099032	0.170035	0.982078	-0.081303
11204		9.733762	0.955965	-0.738727	-0.004571	0.008366	0.002059	1.000000	-0.000057	0.000105	0.000026	-0.084118	0.096593	0.991763	0.981820	-0.161924	0.099045	0.170157	0.982064	-0.081217
11205		9.752585	0.940787	-0.720354	0.002038	0.004566	-0.001141	1.000000	0.000025	0.000057	-0.000014	-0.084228	0.096619	0.991751	0.981812	-0.161904	0.099157	0.170149	0.982065	-0.081225
11206		9.691416	0.946486	-0.765321	0.007621	0.006212	-0.000815	1.000000	0.000095	0.000078	-0.000010	-0.084341	0.096586	0.991745	0.981833	-0.161723	0.099248	0.169974	0.982098	-0.081192
11207		9.740730	1.019567	-0.781118	0.002847	0.005980	0.002997	1.000000	0.000036	0.000075	0.000037	-0.084375	0.096545	0.991746	0.981848	-0.161620	0.099266	0.169870	0.982119	-0.081156
11208		9.716878	0.978111	-0.760704	0.000797	0.007685	0.004409	1.000000	0.000010	0.000096	0.000055	-0.084437	0.096474	0.991748	0.981836	-0.161659	0.099319	0.169907	0.982120	-0.081071
11209		9.721799	0.925834	-0.736207	-0.000906	0.006486	0.005647	1.000000	-0.000011	0.000081	0.000071	-0.084368	0.096385	0.991762	0.981849	-0.161632	0.099234	0.169865	0.982133	-0.080999
11210		9.728602	0.920260	-0.745894	0.003761	0.007099	0.003439	1.000000	0.000047	0.000089	0.000043	-0.084362	0.096343	0.991767	0.981862	-0.161563	0.099215	0.169792	0.982148	-0.080966
11211		9.712742	1.009993	-0.746651	0.002845	0.010664	0.003720	1.000000	0.000036	0.000133	0.000046	-0.084364	0.096194	0.991781	0.981884	-0.161452	0.099181	0.169666	0.982181	-0.080831
11212		9.730285	0.978877	-0.756067	-0.003074	0.010249	0.006111	1.000000	-0.000038	0.000128	0.000076	-0.084244	0.096036	0.991806	0.981884	-0.161538	0.099043	0.169727	0.982182	-0.080687
11213		9.715032	0.917590	-0.705283	-0.000001	0.009281	0.003538	1.000000	-0.000000	0.000116	0.000044	-0.084286	0.095957	0.991810	0.981854	-0.161695	0.099084	0.169879	0.982164	-0.080587
11214		9.739013	0.934569	-0.729826	0.004107	0.011973	0.005167	1.000000	0.000051	0.000150	0.000065	-0.084282	0.095766	0.991829	0.981863	-0.161664	0.099045	0.169828	0.982188	-0.080404
11215		9.725453	0.965753	-0.756531	0.004221	0.010003	0.004018	1.000000	0.000053	0.000125	0.000050	-0.084291	0.095654	0.991839	0.981884	-0.161551	0.099025	0.169705	0.982218	-0.080304
11216		9.702477	0.969044	-0.718701	0.002399	0.010861	0.004310	1.000000	0.000030	0.000136	0.000054	-0.084296	0.095493	0.991854	0.981891	-0.161523	0.099000	0.169661	0.982238	-0.080147
11217		9.729282	0.956596	-0.721523	0.006620	0.011582	0.004792	1.000000	0.000083	0.000145	0.000060	-0.084299	0.095316	0.991871	0.981909	-0.161434	0.098965	0.169554	0.982270	-0.079983
11218		9.727419	0.902256	-0.724777	0.008787	0.009410	0.003870	1.000000	0.000110	0.000118	0.000048	-0.084269	0.095197	0.991885	0.981953	-0.161204	0.098897	0.169310	0.982319	-0.079895
11219		9.726301	0.945642	-0.715394	0.002170	0.010292	0.001695	1.000000	0.000027	0.000129	0.000021	-0.084336	0.095064	0.991892	0.981953	-0.161183	0.098939	0.169281	0.982336	-0.079755
11220		9.738876	0.950361	-0.716299	0.002286	0.009826	0.002182	1.000000	0.000029	0.000123	0.000027	-0.084404	0.094941	0.991898	0.981960	-0.161112	0.098980	0.169204	0.982359	-0.079629
11221		9.720573	0.971433	-0.691377	-0.001818	0.007050	0.002643	1.000000	-0.000023	0.000088	0.000033	-0.084433	0.094884	0.991901	0.981944	-0.161194	0.099005	0.169283	0.982351	-0.079561
11222		9.739308	0.949101	-0.712085	0.001264	0.010681	0.002883	1.000000	0.000016	0.000134	0.000036	-0.084442	0.094729	0.991915	0.981950	-0.161169	0.098986	0.169243	0.982370	-0.079409
11223		9.706377	0.957445	-0.732811	0.003318	0.008890	0.003567	1.000000	0.000041	0.000111	0.000045	-0.084487	0.094644	0.991920	0.981958	-0.161104	0.099010	0.169173	0.982389	-0.079325
11224		9.734857	0.975991	-0.738713	0.000012	0.009290	0.003523	1.000000	0.000000	0.000116	0.000044	-0.084474	0.094521	0.991932	0.981960	-0.161117	0.098978	0.169172	0.982399	-0.079206
11225		9.738686	0.931765	-0.733974	-0.004092	0.009694	0.003067	1.000000	-0.000051	0.000121	0.000038	-0.084528	0.094370	0.991942	0.981950	-0.161157	0.099009	0.169202	0.982406	-0.079045
11226		9.708932	0.933209	-0.724646	-0.002948	0.009880	0.004484	1.000000	-0.000037	0.000124	0.000056	-0.084537	0.094239	0.991954	0.981938	-0.161232	0.099001	0.169265	0.982407	-0.078907
11227		9.716276	0.956945	-0.685610	-0.005688	0.008113	0.002699	1.000000	-0.000071	0.000101	0.000034	-0.084620	0.094155	0.991955	0.981901	-0.161412	0.099084	0.169442	0.982385	-0.078792
11228		9.731500	0.925947	-0.704441	-0.000669	0.012094	0.000590	1.000000	-0.000008	0.000151	0.000007	-0.084756	0.093962	0.991961	0.981885	-0.161441	0.099187	0.169463	0.982399	-0.078577
11229		9.729881	0.941203	-0.742645	-0.007969	0.009335	-0.000601	1.000000	-0.000100	0.000117	-0.000008	-0.084902	0.093857	0.991959	0.981832	-0.161678	0.099333	0.169701	0.982370	-0.078425
11230		9.741094	0.997298	-0.696415	-0.015374	0.010058	0.000982	1.000000	-0.000192	0.000126	0.000012	-0.084977	0.093736	0.991964	0.981753	-0.162102	0.099420	0.170119	0.982312	-0.078250
11231		9.713483	1.006659	-0.637783	-0.007849	0.008786	0.001976	1.000000	-0.000098	0.000110	0.000025	-0.084988	0.093648	0.991971	0.981710	-0.162349	0.099435	0.170358	0.982279	-0.078138
11232		9.735328	0.964568	-0.708016	-0.000440	0.007980	0.002483	1.000000	-0.000005	0.000100	0.000031	-0.085027	0.093559	0.991976	0.981696	-0.162417	0.099464	0.170419	0.982277	-0.078037
11233		9.739972	0.958542	-0.726896	-0.004997	0.006904	0.005165	1.000000	-0.000062	0.000086	0.000065	-0.084973	0.093464	0.991990	0.981681	-0.162546	0.099405	0.170535	0.982264	-0.077940
11234		9.724729	0.919904	-0.668615	0.001497	0.006654	0.002683	1.000000	0.000019	0.000083	0.000034	-0.084979	0.093429	0.991993	0.981679	-0.162558	0.099405	0.170544	0.982266	-0.077904
11235		9.740844	0.979119	-0.715118	0.004239	0.008420	0.004469	1.000000	0.000053	0.000105	0.000056	-0.084965	0.093335	0.992003	0.981684	-0.162548	0.099375	0.170523	0.982276	-0.077815
11236		9.723906	0.948859	-0.737236	0.003101	0.008152	0.005139	1.000000	0.000039	0.000102	0.000064	-0.084988	0.093226	0.992011	0.981695	-0.162482	0.099374	0.170448	0.982298	-0.077710
11237		9.721902	0.960025	-0.665295	0.000252	0.008361	0.004494	1.000000	0.000003	0.000105	0.000056	-0.084988	0.093117	0.992021	0.981701	-0.162457	0.099354	0.170413	0.982312	-0.077607
11238		9.722525	0.929174	-0.651480	0.000586	0.005536	0.002238	1.000000	0.000007	0.000069	0.000028	-0.084962	0.093091	0.992026	0.981698	-0.162492	0.099325	0.170442	0.982309	-0.077582
11239		9.721848	0.929838	-0.710245	0.003551	0.006536	0.000822	1.000000	0.000044	0.000082	0.000010	-0.085013	0.093041	0.992026	0.981697	-0.162475	0.099366	0.170425	0.982316	-0.077526
11240		9.731757	0.963960	-0.733571	-0.001235	0.006397	0.002524	1.000000	-0.000015	0.000080	0.000032	-0.085037	0.092990	0.992029	0.981684	-0.162539	0.099386	0.170485	0.982311	-0.077465
11241		9.729262	0.999434	-0.713652	0.001050	0.008526	0.000724	1.000000	0.000013	0.000107	0.000009	-0.085169	0.092947	0.992022	0.981657	-0.162623	0.099516	0.170575	0.982301	-0.077392
11242		9.706030	0.944466	-0.712308	0.001507	0.008248	0.002219	1.000000	0.000019	0.000103	0.000028	-0.085206	0.092852	0.992027	0.981655	-0.162620	0.099536	0.170565	0.982310	-0.077292
11243		9.740626	0.943274	-0.698051	0.001395	0.008800	-0.000360	1.000000	0.000017	0.000110	-0.000005	-0.085353	0.092776	0.992022	0.981638	-0.162644	0.099670	0.170593	0.982313	-0.077190
11244		9.736749	0.970881	-0.666787	0.005503	0.009985	-0.000356	1.000000	0.000069	0.000125	-0.000004	-0.085459	0.092664	0.992023	0.981636	-0.162603	0.099753	0.170550	0.982331	-0.077067
11245		9.706962	0.966508	-0.697607	0.001852	0.008523	0.001134	1.000000	0.000023	0.000107	0.000014	-0.085587	0.092536	0.992024	0.981645	-0.162489	0.099849	0.170433	0.982362	-0.076930
11246		9.727556	0.975184	-0.720643	-0.003610	0.011106	0.001987	1.000000	-0.000045	0.000139	0.000025	-0.085676	0.092336	0.992035	0.981637	-0.162504	0.099904	0.170435	0.982378	-0.076718
11247		9.747626	0.915482	-0.708028	-0.001670	0.011370	0.001730	1.000000	-0.000021	0.000142	0.000022	-0.085712	0.092164	0.992048	0.981620	-0.162601	0.099917	0.170517	0.982378	-0.076533
11248		9.706683	0.979564	-0.670590	-0.000764	0.009390	0.001003	1.000000	-0.000010	0.000117	0.000013	-0.085809	0.092047	0.992050	0.981619	-0.162564	0.099990	0.170475	0.982395	-0.076406
11249		9.734760	0.976241	-0.684339	-0.001099	0.010710	0.001624	1.000000	-0.000014	0.000134	0.000020	-0.085843	0.091892	0.992062	0.981603	-0.162651	0.100003	0.170549	0.982395	-0.076239
11250		9.734015	0.937416	-0.658497	-0.001323	0.011562	0.002734	1.000000	-0.000017	0.000145	0.000034	-0.085879	0.091704	0.992076	0.981593	-0.162703	0.100011	0.170585	0.982404	-0.076043
11251		9.722445	0.947679	-0.683842	0.003356	0.012170	0.000547	1.000000	0.000042	0.000152	0.000007	-0.085976	0.091513	0.992085	0.981593	-0.162669	0.100072	0.170540	0.982428	-0.075842
11252		9.727595	0.964815	-0.693193	0.003365	0.013763	0.000084	1.000000	0.000042	0.000172	0.000001	-0.086107	0.091301	0.992094	0.981586	-0.162651	0.100164	0.170510	0.982450	-0.075614
11253		9.724060	0.962509	-0.649118	-0.004059	0.009881	-0.001150	1.000000	-0.000051	0.000124	-0.000014	-0.086293	0.091196	0.992087	0.981547	-0.162779	0.100339	0.170642	0.982439	-0.075467
11254		9.735835	0.975504	-0.669952	0.009754	0.013895	-0.000784	1.000000	0.000122	0.000174	-0.000010	-0.086436	0.090999	0.992093	0.981560	-0.162645	0.100436	0.170499	0.982479	-0.075263
11255		9.725253	0.971913	-0.714571	0.005981	0.011308	0.000673	1.000000	0.000075	0.000141	0.000008	-0.086529	0.090843	0.992099	0.981571	-0.162542	0.100495	0.170387	0.982511	-0.075104
11256		9.727995	0.942491	-0.689939	-0.003355	0.013448	-0.000066	1.000000	-0.000042	0.000168	-0.000001	-0.086677	0.090646	0.992104	0.981535	-0.162680	0.100617	0.170516	0.982506	-0.074872
11257		9.718004	0.938080	-0.673652	0.002019	0.016030	-0.000699	1.000000	0.000025	0.000200	-0.000009	-0.086794	0.090376	0.992118	0.981529	-0.162675	0.100686	0.170492	0.982532	-0.074588
11258		9.732490	1.026604	-0.679503	-0.004595	0.015244	-0.000356	1.000000	-0.000057	0.000191	-0.000004	-0.086946	0.090134	0.992127	0.981492	-0.162821	0.100807	0.170625	0.982530	-0.074309
11259		9.710869	1.009190	-0.639418	-0.005283	0.014698	0.001806	1.000000	-0.000066	0.000184	0.000023	-0.087074	0.089876	0.992139	0.981470	-0.162901	0.100895	0.170688	0.982540	-0.074026
11260		9.740831	0.984046	-0.650678	-0.001290	0.014760	0.001790	1.000000	-0.000016	0.000184	0.000022	-0.087142	0.089647	0.992154	0.981444	-0.163034	0.100932	0.170804	0.982539	-0.073776
11261		9.740732	0.961091	-0.655386	0.000307	0.014752	0.002618	1.000000	0.000004	0.000184	0.000033	-0.087202	0.089400	0.992171	0.981444	-0.163024	0.100949	0.170772	0.982563	-0.073525
11262		9.741067	0.960155	-0.651764	0.003729	0.015392	0.004794	1.000000	0.000047	0.000192	0.000060	-0.087224	0.089151	0.992192	0.981441	-0.163057	0.100930	0.170782	0.982581	-0.073274
11263		9.726859	0.953412	-0.654596	0.003275	0.014161	0.001668	1.000000	0.000041	0.000177	0.000021	-0.087290	0.088956	0.992203	0.981419	-0.163161	0.100969	0.170871	0.982581	-0.073061
11264		9.746319	1.006157	-0.669404	-0.002653	0.013839	0.001929	1.000000	-0.000033	0.000173	0.000024	-0.087397	0.088726	0.992214	0.981394	-0.163267	0.101044	0.170961	0.982584	-0.072806
11265		9.730677	0.991408	-0.661126	-0.002755	0.015820	0.003062	1.000000	-0.000034	0.000198	0.000038	-0.087408	0.088442	0.992239	0.981363	-0.163470	0.101020	0.171135	0.982576	-0.072505
11266		9.721709	0.919778	-0.659593	-0.003524	0.019016	0.001714	1.000000	-0.000044	0.000238	0.000021	-0.087572	0.088085	0.992256	0.981349	-0.163490	0.101123	0.171132	0.982605	-0.072125
11267		9.748955	0.930555	-0.651964	-0.016999	0.015193	0.002324	1.000000	-0.000212	0.000190	0.000029	-0.087622	0.087814	0.992276	0.981261	-0.163990	0.101162	0.171607	0.982546	-0.071799
11268		9.760253	1.008698	-0.596184	-0.025567	0.011042	0.001737	1.000000	-0.000320	0.000138	0.000022	-0.087674	0.087650	0.992286	0.981130	-0.164726	0.101239	0.172328	0.982437	-0.071554
11269		9.689700	1.038656	-0.579460	-0.018618	0.010425	0.002875	1.000000	-0.000233	0.000130	0.000036	-0.087741	0.087510	0.992292	0.981044	-0.165193	0.101315	0.172786	0.982371	-0.071357
11270		9.744257	0.919040	-0.589892	-0.010734	0.012606	0.001907	1.000000	-0.000134	0.000158	0.000024	-0.087846	0.087307	0.992301	0.980995	-0.165430	0.101400	0.173010	0.982349	-0.071115
11271		9.745526	0.904885	-0.606108	-0.004354	0.011222	-0.000562	1.000000	-0.000054	0.000140	-0.000007	-0.087952	0.087130	0.992307	0.980961	-0.165580	0.101485	0.173148	0.982340	-0.070908
11272		9.756056	0.962307	-0.619842	-0.001167	0.009775	-0.002610	1.000000	-0.000015	0.000122	-0.000033	-0.088125	0.087025	0.992301	0.980933	-0.165648	0.101642	0.173218	0.982338	-0.070768
11273		9.707214	0.987138	-0.588625	-0.009847	0.006093	-0.003694	1.000000	-0.000123	0.000076	-0.000046	-0.088260	0.086984	0.992292	0.980864	-0.165963	0.101792	0.173538	0.982288	-0.070672
11274		9.763104	0.929863	-0.615368	-0.009055	0.004578	-0.004904	1.000000	-0.000113	0.000057	-0.000061	-0.088508	0.087000	0.992269	0.980803	-0.166165	0.102054	0.173759	0.982253	-0.070623
11275		9.742463	1.028167	-0.656134	-0.008013	0.006827	-0.004433	1.000000	-0.000100	0.000085	-0.000055	-0.088627	0.086964	0.992261	0.980724	-0.166543	0.102192	0.174141	0.982192	-0.070527
11276		9.704921	1.072031	-0.608913	-0.010425	0.006586	0.000581	1.000000	-0.000130	0.000082	0.000007	-0.088656	0.086900	0.992264	0.980667	-0.166853	0.102233	0.174446	0.982145	-0.070427
11277		9.723211	0.951993	-0.582216	-0.001050	0.010819	-0.000493	1.000000	-0.000013	0.000135	-0.000006	-0.088806	0.086736	0.992265	0.980660	-0.166823	0.102349	0.174410	0.982164	-0.070243
11278		9.722808	0.931053	-0.648814	-0.009069	0.004408	-0.000730	1.000000	-0.000113	0.000055	-0.000009	-0.088898	0.086752	0.992256	0.980601	-0.167100	0.102464	0.174695	0.982116	-0.070214
11279		9.748013	1.045422	-0.600538	-0.007340	0.007120	-0.000331	1.000000	-0.000092	0.000089	-0.000004	-0.088983	0.086686	0.992254	0.980549	-0.167352	0.102554	0.174946	0.982079	-0.070109
11280		9.745801	1.021072	-0.556590	0.002891	0.006087	0.000900	1.000000	0.000036	0.000076	0.000011	-0.089065	0.086634	0.992251	0.980549	-0.167310	0.102623	0.174904	0.982091	-0.070048
11281		9.728609	0.969494	-0.588032	0.004707	0.005223	0.000628	1.000000	0.000059	0.000065	0.000008	-0.089078	0.086629	0.992250	0.980539	-0.167357	0.102637	0.174951	0.982083	-0.070035
11282		9.731278	0.963386	-0.617550	0.002051	0.001303	0.001872	1.000000	0.000026	0.000016	0.000023	-0.089111	0.086711	0.992240	0.980538	-0.167336	0.102683	0.174941	0.982079	-0.070112
11283		9.760696	0.997128	-0.595830	0.004005	0.003163	0.001164	1.000000	0.000050	0.000040	0.000015	-0.089214	0.086719	0.992230	0.980561	-0.167145	0.102773	0.174758	0.982111	-0.070121
11284		9.721789	1.002837	-0.587413	0.005118	0.000239	0.001429	1.000000	0.000064	0.000003	0.000018	-0.089202	0.086804	0.992224	0.980579	-0.167040	0.102769	0.174662	0.982121	-0.070218
11285		9.736032	0.904715	-0.633613	0.005027	0.002305	0.000474	1.000000	0.000063	0.000029	0.000006	-0.089184	0.086881	0.992219	0.980557	-0.167172	0.102773	0.174800	0.982092	-0.070283
11286		9.731314	1.044712	-0.632070	0.002626	0.000726	-0.000317	1.000000	0.000033	0.000009	-0.000004	-0.089293	0.086960	0.992202	0.980573	-0.167007	0.102884	0.174651	0.982113	-0.070358
11287		9.743742	0.996109	-0.571292	0.003637	-0.000218	0.001083	1.000000	0.000045	-0.000003	0.000014	-0.089273	0.087072	0.992194	0.980565	-0.167053	0.102887	0.174708	0.982096	-0.070466
11288		9.733092	0.968677	-0.567373	0.005899	-0.001363	0.002311	1.000000	0.000074	-0.000017	0.000029	-0.089273	0.087201	0.992183	0.980580	-0.166958	0.102902	0.174626	0.982100	-0.070603
11289		9.730401	1.028852	-0.661849	0.004642	-0.002673	0.000857	1.000000	0.000058	-0.000033	0.000011	-0.089349	0.087347	0.992163	0.980609	-0.166732	0.102987	0.174421	0.982126	-0.070756
11290		9.731010	1.020741	-0.642183	-0.002776	-0.003536	0.002845	1.000000	-0.000035	-0.000044	0.000036	-0.089305	0.087524	0.992151	0.980583	-0.166886	0.102985	0.174590	0.982084	-0.070920
11291		9.715672	0.998261	-0.617932	-0.001401	-0.002609	0.002700	1.000000	-0.000018	-0.000033	0.000034	-0.089304	0.087680	0.992138	0.980575	-0.166918	0.103014	0.174638	0.982064	-0.071070
11292		9.750009	0.996447	-0.605885	0.000421	-0.001963	0.004053	1.000000	0.000005	-0.000025	0.000051	-0.089229	0.087843	0.992130	0.980559	-0.167031	0.102977	0.174762	0.982031	-0.071232
11293		9.734949	0.997378	-0.633249	0.003961	-0.001626	0.002554	1.000000	0.000050	-0.000020	0.000032	-0.089129	0.088000	0.992125	0.980530	-0.167239	0.102921	0.174979	0.981981	-0.071381
11294		9.734390	1.004156	-0.654201	-0.003457	-0.002488	0.004543	1.000000	-0.000043	-0.000031	0.000057	-0.089080	0.088154	0.992116	0.980512	-0.167350	0.102907	0.175102	0.981949	-0.071528
11295		9.748485	1.015355	-0.608522	-0.003913	-0.002293	0.005133	1.000000	-0.000049	-0.000029	0.000064	-0.089023	0.088287	0.992109	0.980500	-0.167435	0.102881	0.175197	0.981922	-0.071660
11296		9.726584	0.967831	-0.620920	0.000304	-0.001579	0.005650	1.000000	0.000004	-0.000020	0.000071	-0.088903	0.088403	0.992109	0.980498	-0.167507	0.102788	0.175272	0.981899	-0.071787
11297		9.727781	0.952533	-0.640555	0.006471	-0.000518	0.003834	1.000000	0.000081	-0.000006	0.000048	-0.088860	0.088476	0.992107	0.980539	-0.167297	0.102743	0.175066	0.981929	-0.071888
11298		9.746923	0.981114	-0.607125	-0.001517	-0.002224	0.004297	1.000000	-0.000019	-0.000028	0.000054	-0.088874	0.088617	0.992093	0.980540	-0.167265	0.102780	0.175050	0.981921	-0.072027
11299		9.728295	0.973115	-0.632884	0.003977	-0.000031	0.002089	1.000000	0.000050	-0.000000	0.000026	-0.088831	0.088720	0.992088	0.980533	-0.167321	0.102760	0.175114	0.981902	-0.072129
11300		9.732969	0.967550	-0.654109	0.009881	-0.002820	0.000682	1.000000	0.000124	-0.000035	0.000009	-0.088816	0.088870	0.992076	0.980564	-0.167140	0.102757	0.174948	0.981920	-0.072298
11301		9.731056	1.018700	-0.667908	0.004425	-0.000310	0.003587	1.000000	0.000055	-0.000004	0.000045	-0.088733	0.088962	0.992075	0.980557	-0.167218	0.102697	0.175029	0.981898	-0.072395
11302		9.721859	1.027703	-0.626557	0.007276	0.000989	0.005873	1.000000	0.000091	0.000012	0.000073	-0.088660	0.089041	0.992074	0.980580	-0.167122	0.102632	0.174936	0.981907	-0.072495
11303		9.735562	0.934968	-0.633120	0.010585	0.000666	0.003856	1.000000	0.000132	0.000008	0.000048	-0.088634	0.089128	0.992069	0.980607	-0.166977	0.102611	0.174798	0.981924	-0.072600
11304		9.726973	0.990305	-0.635198	0.012767	0.001671	0.002036	1.000000	0.000160	0.000021	0.000025	-0.088651	0.089160	0.992064	0.980652	-0.166707	0.102614	0.174533	0.981967	-0.072656
11305		9.756542	0.994887	-0.662008	0.010033	0.001416	0.001864	1.000000	0.000125	0.000018	0.000023	-0.088656	0.089234	0.992057	0.980668	-0.166606	0.102625	0.174441	0.981977	-0.072738
11306		9.760813	0.995556	-0.642717	0.009702	0.002739	0.002479	1.000000	0.000121	0.000034	0.000031	-0.088685	0.089295	0.992049	0.980697	-0.166421	0.102650	0.174264	0.982003	-0.072812
11307		9.714225	0.990423	-0.651897	0.015393	0.002316	0.003800	1.000000	0.000192	0.000029	0.000048	-0.088645	0.089324	0.992050	0.980749	-0.166147	0.102595	0.173990	0.982047	-0.072876
11308		9.732876	1.026334	-0.638093	0.017470	0.005220	0.005198	1.000000	0.000218	0.000065	0.000065	-0.088587	0.089286	0.992059	0.980819	-0.165792	0.102504	0.173628	0.982111	-0.072886
11309		9.726532	0.999179	-0.614207	0.022702	0.003483	0.005484	1.000000	0.000284	0.000044	0.000069	-0.088542	0.089294	0.992062	0.980913	-0.165282	0.102424	0.173116	0.982196	-0.072955
11310		9.725161	0.990154	-0.662738	0.016001	0.006282	0.006469	1.000000	0.000200	0.000079	0.000081	-0.088429	0.089213	0.992079	0.980971	-0.165032	0.102279	0.172849	0.982245	-0.072921
11311		9.704717	0.979623	-0.636516	0.007321	0.004193	0.004929	1.000000	0.000092	0.000052	0.000062	-0.088362	0.089169	0.992089	0.980996	-0.164934	0.102198	0.172742	0.982266	-0.072901
11312		9.728433	0.950411	-0.618856	-0.005363	0.001965	0.005483	1.000000	-0.000067	0.000025	0.000069	-0.088271	0.089212	0.992093	0.980958	-0.165196	0.102135	0.173002	0.982218	-0.072931
11313		9.739899	0.968746	-0.602168	0.001835	0.002164	0.002970	1.000000	0.000023	0.000027	0.000037	-0.088228	0.089247	0.992094	0.980946	-0.165287	0.102105	0.173093	0.982199	-0.072964
11314		9.710060	1.023529	-0.659471	0.001245	0.001152	0.005623	1.000000	0.000016	0.000014	0.000070	-0.088123	0.089311	0.992098	0.980925	-0.165458	0.102026	0.173263	0.982164	-0.073027
11315		9.696024	0.956715	-0.641182	-0.005130	0.001192	0.002289	1.000000	-0.000064	0.000015	0.000029	-0.088144	0.089392	0.992089	0.980881	-0.165686	0.102077	0.173500	0.982119	-0.073078
11316		9.728454	0.924482	-0.625708	-0.000008	-0.000081	0.002088	1.000000	-0.000000	-0.000001	0.000026	-0.088164	0.089470	0.992080	0.980868	-0.165745	0.102115	0.173569	0.982102	-0.073146
11317		9.757166	0.995777	-0.637329	0.006383	0.000040	0.001246	1.000000	0.000080	0.000000	0.000016	-0.088172	0.089556	0.992071	0.980870	-0.165715	0.102136	0.173548	0.982099	-0.073231
11318		9.752456	1.001388	-0.677026	0.002150	-0.000755	0.002822	1.000000	0.000027	-0.000009	0.000035	-0.088148	0.089664	0.992064	0.980862	-0.165764	0.102134	0.173606	0.982081	-0.073337
11319		9.718835	0.994038	-0.669318	0.007065	0.000422	0.003259	1.000000	0.000088	0.000005	0.000041	-0.088164	0.089720	0.992057	0.980903	-0.165516	0.102142	0.173365	0.982117	-0.073415
11320		9.718001	0.977305	-0.638015	-0.000249	-0.000820	0.003660	1.000000	-0.000003	-0.000010	0.000046	-0.088146	0.089816	0.992050	0.980899	-0.165541	0.102142	0.173399	0.982105	-0.073509
11321		9.726483	0.950521	-0.647879	0.004352	0.001842	0.000535	1.000000	0.000054	0.000023	0.000007	-0.088193	0.089878	0.992040	0.980902	-0.165489	0.102196	0.173357	0.982108	-0.073566
11322		9.736547	1.014658	-0.684626	0.003314	0.001107	0.001690	1.000000	0.000041	0.000014	0.000021	-0.088251	0.089968	0.992027	0.980907	-0.165421	0.102264	0.173303	0.982111	-0.073651
11323		9.729245	1.054791	-0.645747	-0.006525	0.000107	0.006613	1.000000	-0.000082	0.000001	0.000083	-0.088174	0.090051	0.992026	0.980876	-0.165629	0.102218	0.173513	0.982068	-0.073724
11324		9.722835	0.915704	-0.593833	0.000458	0.001238	0.003117	1.000000	0.000006	0.000015	0.000039	-0.088197	0.090116	0.992018	0.980880	-0.165586	0.102249	0.173479	0.982069	-0.073789
11325		9.751259	0.935471	-0.661541	0.003537	0.000251	0.000585	1.000000	0.000044	0.000003	0.000007	-0.088252	0.090193	0.992006	0.980889	-0.165496	0.102310	0.173401	0.982078	-0.073864
11326		9.729532	1.023853	-0.693648	0.000887	-0.002069	0.001375	1.000000	0.000011	-0.000026	0.000017	-0.088226	0.090342	0.991995	0.980865	-0.165634	0.102320	0.173551	0.982041	-0.074000
11327		9.738858	1.041866	-0.687083	-0.007877	0.000858	0.004207	1.000000	-0.000098	0.000011	0.000053	-0.088195	0.090401	0.991993	0.980824	-0.165879	0.102319	0.173800	0.981994	-0.074038
11328		9.712221	0.999759	-0.677607	-0.007866	0.002374	0.005826	1.000000	-0.000098	0.000030	0.000073	-0.088147	0.090415	0.991996	0.980795	-0.166069	0.102288	0.173988	0.981960	-0.074040
11329		9.722639	0.920026	-0.613103	-0.005218	0.003259	0.001329	1.000000	-0.000065	0.000041	0.000017	-0.088115	0.090452	0.991995	0.980727	-0.166463	0.102292	0.174383	0.981890	-0.074041
11330		9.738710	0.934054	-0.617033	0.004011	0.001649	-0.000471	1.000000	0.000050	0.000021	-0.000006	-0.088188	0.090496	0.991985	0.980728	-0.166411	0.102369	0.174341	0.981895	-0.074077
11331		9.734802	0.985358	-0.639977	0.003875	-0.000993	-0.002114	1.000000	0.000048	-0.000012	-0.000026	-0.088279	0.090633	0.991964	0.980713	-0.166428	0.102484	0.174379	0.981880	-0.074193
11332		9.741688	1.063295	-0.667365	0.002624	0.000643	0.001765	1.000000	0.000033	0.000008	0.000022	-0.088285	0.090690	0.991958	0.980715	-0.166409	0.102499	0.174366	0.981877	-0.074250
11333		9.707764	1.003752	-0.655631	0.002840	-0.000293	0.002747	1.000000	0.000035	-0.000004	0.000034	-0.088263	0.090766	0.991953	0.980720	-0.166386	0.102488	0.174350	0.981874	-0.074330
11334		9.741099	0.987198	-0.671741	0.007998	0.001623	0.001612	1.000000	0.000100	0.000020	0.000020	-0.088287	0.090808	0.991947	0.980748	-0.166209	0.102506	0.174178	0.981900	-0.074386
11335		9.736517	0.991593	-0.650959	0.011295	0.001135	0.003768	1.000000	0.000141	0.000014	0.000047	-0.088264	0.090882	0.991943	0.980777	-0.166055	0.102484	0.174031	0.981920	-0.074478
11336		9.730813	1.010948	-0.671075	0.011771	0.002534	0.002709	1.000000	0.000147	0.000032	0.000034	-0.088259	0.090908	0.991941	0.980817	-0.165826	0.102467	0.173804	0.981956	-0.074529
11337		9.737263	0.982936	-0.690204	0.002395	0.001422	0.004955	1.000000	0.000030	0.000018	0.000062	-0.088266	0.090953	0.991936	0.980830	-0.165742	0.102475	0.173726	0.981966	-0.074580
11338		9.736460	0.966005	-0.658304	0.002871	0.002821	0.003897	1.000000	0.000036	0.000035	0.000049	-0.088227	0.090970	0.991938	0.980825	-0.165796	0.102443	0.173778	0.981955	-0.074598
11339		9.728293	0.961482	-0.635779	0.004114	0.001102	0.002105	1.000000	0.000051	0.000014	0.000026	-0.088222	0.091024	0.991933	0.980829	-0.165771	0.102446	0.173759	0.981955	-0.074654
11340		9.721378	1.025345	-0.648681	0.004474	0.002890	0.002642	1.000000	0.000056	0.000036	0.000033	-0.088232	0.091033	0.991931	0.980841	-0.165695	0.102452	0.173685	0.981966	-0.074669
11341		9.724218	0.988567	-0.666136	0.003435	0.002157	0.003798	1.000000	0.000043	0.000027	0.000047	-0.088162	0.091086	0.991933	0.980820	-0.165848	0.102404	0.173837	0.981936	-0.074717
11342		9.721930	0.934504	-0.671313	0.003202	0.001497	0.003283	1.000000	0.000040	0.000019	0.000041	-0.088131	0.091125	0.991932	0.980822	-0.165849	0.102379	0.173840	0.981932	-0.074761
11343		9.724437	0.986888	-0.665415	0.006983	0.002486	0.002295	1.000000	0.000087	0.000031	0.000029	-0.088087	0.091141	0.991934	0.980826	-0.165850	0.102340	0.173839	0.981930	-0.074784
11344		9.717142	1.028042	-0.686425	0.002416	0.003020	0.004484	1.000000	0.000030	0.000038	0.000056	-0.088026	0.091141	0.991940	0.980817	-0.165941	0.102286	0.173926	0.981915	-0.074786
11345		9.717538	0.966862	-0.661158	0.001397	0.003882	0.005171	1.000000	0.000017	0.000049	0.000065	-0.087925	0.091144	0.991949	0.980792	-0.166139	0.102201	0.174116	0.981881	-0.074785
11346		9.733830	0.949907	-0.652875	0.003203	0.001498	0.003282	1.000000	0.000040	0.000019	0.000041	-0.087859	0.091201	0.991949	0.980778	-0.166249	0.102155	0.174228	0.981857	-0.074841
11347		9.732748	0.993378	-0.645536	0.004243	0.002231	0.002126	1.000000	0.000053	0.000028	0.000027	-0.087807	0.091239	0.991950	0.980750	-0.166433	0.102124	0.174411	0.981822	-0.074869
11348		9.714634	1.007784	-0.662343	0.004692	0.001956	0.003623	1.000000	0.000059	0.000024	0.000045	-0.087778	0.091266	0.991950	0.980757	-0.166407	0.102098	0.174386	0.981824	-0.074903
11349		9.739105	1.024260	-0.689025	0.005336	-0.000849	0.006571	1.000000	0.000067	-0.000011	0.000082	-0.087675	0.091376	0.991949	0.980780	-0.166326	0.102009	0.174308	0.981828	-0.075037
11350		9.726946	0.987428	-0.673478	0.003901	0.003402	0.006908	1.000000	0.000049	0.000043	0.000086	-0.087536	0.091343	0.991965	0.980781	-0.166404	0.101872	0.174372	0.981818	-0.075021
11351		9.742813	0.946797	-0.613352	0.000911	0.000969	0.004610	1.000000	0.000011	0.000012	0.000058	-0.087487	0.091409	0.991963	0.980775	-0.166463	0.101839	0.174434	0.981802	-0.075088
11352		9.761568	0.953862	-0.648153	0.011637	-0.000189	0.003149	1.000000	0.000145	-0.000002	0.000039	-0.087472	0.091486	0.991957	0.980825	-0.166181	0.101817	0.174159	0.981842	-0.075195
11353		9.709018	1.029276	-0.702636	0.006862	0.001359	0.002269	1.000000	0.000086	0.000017	0.000028	-0.087382	0.091556	0.991959	0.980806	-0.166331	0.101752	0.174310	0.981810	-0.075265
11354		9.731483	1.014616	-0.666258	-0.001725	0.000248	0.004933	1.000000	-0.000022	0.000003	0.000062	-0.087323	0.091609	0.991959	0.980795	-0.166425	0.101709	0.174404	0.981789	-0.075317
11355		9.731243	0.960891	-0.661861	0.000127	0.002494	0.005809	1.000000	0.000002	0.000031	0.000073	-0.087270	0.091640	0.991961	0.980792	-0.166467	0.101666	0.174446	0.981779	-0.075352
11356		9.739764	0.933521	-0.670947	0.003355	0.004222	0.002831	1.000000	0.000042	0.000053	0.000035	-0.087260	0.091631	0.991962	0.980785	-0.166511	0.101658	0.174488	0.981773	-0.075340
11357		9.729941	0.951104	-0.649644	0.003542	0.000250	0.000583	1.000000	0.000044	0.000003	0.000007	-0.087297	0.091709	0.991952	0.980785	-0.166484	0.101706	0.174471	0.981770	-0.075413
11358		9.741897	0.963302	-0.673218	0.006172	0.000896	0.002344	1.000000	0.000077	0.000011	0.000029	-0.087315	0.091763	0.991945	0.980808	-0.166340	0.101722	0.174334	0.981790	-0.075478
11359		9.717479	1.004875	-0.671047	0.004683	0.000439	0.002003	1.000000	0.000059	0.000005	0.000025	-0.087355	0.091839	0.991935	0.980826	-0.166203	0.101765	0.174208	0.981806	-0.075560
11360		9.717485	1.034258	-0.683260	0.002174	0.000844	0.002349	1.000000	0.000027	0.000011	0.000029	-0.087350	0.091928	0.991927	0.980804	-0.166323	0.101785	0.174337	0.981777	-0.075635
11361		9.711492	0.971323	-0.686851	0.007570	0.003341	0.003806	1.000000	0.000095	0.000042	0.000048	-0.087309	0.091956	0.991928	0.980805	-0.166338	0.101750	0.174352	0.981772	-0.075668
11362		9.738615	0.981120	-0.682992	0.001840	0.002095	0.005044	1.000000	0.000023	0.000026	0.000063	-0.087252	0.091998	0.991929	0.980800	-0.166398	0.101706	0.174412	0.981758	-0.075713
11363		9.732983	1.029310	-0.654919	0.005276	0.002813	0.005135	1.000000	0.000066	0.000035	0.000064	-0.087177	0.092033	0.991933	0.980794	-0.166471	0.101643	0.174482	0.981742	-0.075753
11364		9.731712	0.960624	-0.678983	0.002532	0.002559	0.004968	1.000000	0.000032	0.000032	0.000062	-0.087111	0.092049	0.991937	0.980779	-0.166588	0.101590	0.174596	0.981721	-0.075768
11365		9.716296	0.967775	-0.665511	0.002661	0.003687	0.004988	1.000000	0.000033	0.000046	0.000062	-0.087095	0.092031	0.991940	0.980798	-0.166493	0.101563	0.174498	0.981739	-0.075763
11366		9.724696	0.999471	-0.639257	0.004115	0.001030	0.004184	1.000000	0.000051	0.000013	0.000052	-0.087027	0.092088	0.991941	0.980802	-0.166507	0.101508	0.174513	0.981731	-0.075829
11367		9.733164	1.001833	-0.661015	0.002876	0.002753	0.005971	1.000000	0.000036	0.000034	0.000075	-0.086978	0.092086	0.991945	0.980825	-0.166404	0.101451	0.174406	0.981748	-0.075847
11368		9.724032	0.981732	-0.667069	0.005386	0.002347	0.005624	1.000000	0.000067	0.000029	0.000070	-0.086879	0.092099	0.991953	0.980830	-0.166429	0.101357	0.174424	0.981743	-0.075875
11369		9.750175	0.976175	-0.692160	0.006057	0.001215	0.006018	1.000000	0.000076	0.000015	0.000075	-0.086820	0.092155	0.991953	0.980856	-0.166314	0.101299	0.174310	0.981757	-0.075951
11370		9.709838	0.972929	-0.673033	0.002513	0.000966	0.005436	1.000000	0.000031	0.000012	0.000068	-0.086716	0.092212	0.991956	0.980844	-0.166436	0.101217	0.174430	0.981731	-0.076013
11371		9.726582	0.948329	-0.644519	0.007449	0.002214	0.003780	1.000000	0.000093	0.000028	0.000047	-0.086645	0.092204	0.991963	0.980865	-0.166355	0.101139	0.174344	0.981746	-0.076026
11372		9.735480	0.973682	-0.658371	0.002504	-0.000481	0.001738	1.000000	0.000031	-0.000006	0.000022	-0.086648	0.092311	0.991953	0.980855	-0.166402	0.101164	0.174401	0.981728	-0.076125
11373		9.720501	1.004577	-0.697756	0.003190	-0.000092	0.003746	1.000000	0.000040	-0.000001	0.000047	-0.086670	0.092418	0.991941	0.980865	-0.166322	0.101198	0.174334	0.981731	-0.076234
11374		9.716965	0.994626	-0.696403	-0.002652	-0.000868	0.004494	1.000000	-0.000033	-0.000011	0.000056	-0.086593	0.092503	0.991940	0.980839	-0.166500	0.101151	0.174515	0.981693	-0.076313
11375		9.721685	0.957937	-0.644564	-0.000113	0.000393	0.001592	1.000000	-0.000001	0.000005	0.000020	-0.086598	0.092586	0.991932	0.980819	-0.166603	0.101178	0.174626	0.981668	-0.076382
11376		9.736247	0.963283	-0.638334	0.003174	-0.001613	0.002132	1.000000	0.000040	-0.000020	0.000027	-0.086608	0.092715	0.991919	0.980822	-0.166570	0.101208	0.174607	0.981661	-0.076511
11377		9.718134	0.978874	-0.716101	0.007205	0.000105	-0.000430	1.000000	0.000090	0.000001	-0.000005	-0.086667	0.092813	0.991905	0.980828	-0.166492	0.101278	0.174544	0.981665	-0.076604
11378		9.742591	0.996130	-0.742704	-0.000789	0.001453	0.003281	1.000000	-0.000010	0.000018	0.000041	-0.086589	0.092872	0.991906	0.980785	-0.166773	0.101233	0.174825	0.981612	-0.076647
11379		9.740591	0.994013	-0.691483	0.004384	0.003361	0.002137	1.000000	0.000055	0.000042	0.000027	-0.086637	0.092886	0.991900	0.980797	-0.166673	0.101275	0.174730	0.981627	-0.076662
11380		9.699163	1.005744	-0.652734	0.002195	0.002368	0.003958	1.000000	0.000027	0.000030	0.000049	-0.086567	0.092918	0.991903	0.980778	-0.166820	0.101223	0.174875	0.981599	-0.076691
11381		9.714371	0.943896	-0.660621	0.004965	0.004217	0.003652	1.000000	0.000062	0.000053	0.000046	-0.086559	0.092895	0.991906	0.980793	-0.166739	0.101205	0.174791	0.981615	-0.076678
11382		9.737333	0.952745	-0.675576	0.004498	0.002967	0.000544	1.000000	0.000056	0.000037	0.000007	-0.086586	0.092909	0.991903	0.980787	-0.166758	0.101235	0.174814	0.981611	-0.076685
11383		9.733230	1.010237	-0.658582	0.005861	0.002297	0.000863	1.000000	0.000073	0.000029	0.000011	-0.086689	0.092923	0.991892	0.980830	-0.166456	0.101317	0.174521	0.981661	-0.076712
11384		9.718756	0.974083	-0.652217	0.003457	0.002238	0.001700	1.000000	0.000043	0.000028	0.000021	-0.086685	0.092960	0.991889	0.980815	-0.166539	0.101325	0.174607	0.981643	-0.076740
11385		9.719375	0.966947	-0.691537	0.005625	0.001636	0.000351	1.000000	0.000070	0.000020	0.000004	-0.086717	0.093018	0.991881	0.980805	-0.166569	0.101369	0.174646	0.981632	-0.076788
11386		9.712653	0.971237	-0.680308	0.005146	0.000241	0.001411	1.000000	0.000064	0.000003	0.000018	-0.086787	0.093084	0.991869	0.980834	-0.166363	0.101434	0.174452	0.981661	-0.076862
11387		9.708020	1.006026	-0.672144	0.005254	-0.000225	0.001902	1.000000	0.000066	-0.000003	0.000024	-0.086834	0.093202	0.991853	0.980845	-0.166260	0.101493	0.174365	0.981668	-0.076980
11388		9.739223	0.988499	-0.698014	0.005231	-0.001820	0.002374	1.000000	0.000065	-0.000023	0.000030	-0.086774	0.093311	0.991848	0.980837	-0.166326	0.101458	0.174438	0.981646	-0.077090
11389		9.759997	0.965784	-0.650849	0.002067	0.001243	0.003936	1.000000	0.000026	0.000016	0.000049	-0.086796	0.093349	0.991843	0.980861	-0.166174	0.101475	0.174291	0.981668	-0.077139
11390		9.706847	1.085645	-0.758754	0.013062	0.002260	0.004594	1.000000	0.000163	0.000028	0.000057	-0.086781	0.093367	0.991843	0.980920	-0.165850	0.101438	0.173968	0.981721	-0.077193
11391		9.726625	0.957350	-0.702702	-0.002748	0.001056	0.007696	1.000000	-0.000034	0.000013	0.000096	-0.086649	0.093421	0.991849	0.980898	-0.166044	0.101332	0.174157	0.981683	-0.077249
11392		9.719453	0.937214	-0.639198	0.002756	0.001635	0.005941	1.000000	0.000034	0.000020	0.000074	-0.086620	0.093449	0.991849	0.980923	-0.165917	0.101298	0.174031	0.981702	-0.077294
11393		9.740911	0.967146	-0.656115	0.005837	0.000632	0.003415	1.000000	0.000073	0.000008	0.000043	-0.086588	0.093514	0.991846	0.980932	-0.165876	0.101275	0.173994	0.981703	-0.077368
11394		9.727666	1.035822	-0.718780	0.005381	0.000832	0.004003	1.000000	0.000067	0.000010	0.000050	-0.086528	0.093564	0.991846	0.980939	-0.165871	0.101224	0.173989	0.981699	-0.077428
11395		9.719422	1.000983	-0.684260	0.002734	0.000042	0.006413	1.000000	0.000034	0.000001	0.000080	-0.086437	0.093638	0.991847	0.980943	-0.165890	0.101148	0.174009	0.981689	-0.077515
11396		9.733498	0.953041	-0.673666	0.012594	0.000936	0.003568	1.000000	0.000157	0.000012	0.000045	-0.086459	0.093666	0.991842	0.981015	-0.165467	0.101141	0.173591	0.981757	-0.077582
11397		9.731012	0.928360	-0.691632	0.014624	-0.000936	0.006363	1.000000	0.000183	-0.000012	0.000080	-0.086281	0.093768	0.991848	0.981043	-0.165403	0.100978	0.173523	0.981758	-0.077719
11398		9.719226	0.974425	-0.693407	0.015893	-0.000999	0.002022	1.000000	0.000199	-0.000012	0.000025	-0.086280	0.093878	0.991838	0.981094	-0.165102	0.100973	0.173233	0.981799	-0.077858
11399		9.743741	0.991052	-0.720595	0.015115	0.000531	0.003214	1.000000	0.000189	0.000007	0.000040	-0.086256	0.093936	0.991835	0.981151	-0.164788	0.100934	0.172924	0.981846	-0.077951
11400		9.718407	0.987392	-0.735070	0.002397	-0.000080	0.003325	1.000000	0.000030	-0.000001	0.000042	-0.086260	0.094018	0.991826	0.981152	-0.164770	0.100951	0.172914	0.981841	-0.078033
11401		9.732313	0.939661	-0.664222	0.003203	-0.000015	0.001657	1.000000	0.000040	-0.000000	0.000021	-0.086323	0.094086	0.991815	0.981174	-0.164603	0.101011	0.172760	0.981862	-0.078106
11402		9.732886	0.961752	-0.656311	0.008925	-0.000369	0.000882	1.000000	0.000112	-0.000005	0.000011	-0.086394	0.094169	0.991800	0.981209	-0.164355	0.101077	0.172526	0.981896	-0.078200
11403		9.722621	0.987509	-0.716857	0.004655	-0.002675	0.000858	1.000000	0.000058	-0.000033	0.000011	-0.086477	0.094313	0.991780	0.981234	-0.164147	0.101167	0.172339	0.981917	-0.078348
11404		9.720059	1.023303	-0.699661	-0.001737	-0.001189	0.001237	1.000000	-0.000022	-0.000015	0.000015	-0.086468	0.094424	0.991770	0.981200	-0.164338	0.101193	0.172540	0.981874	-0.078439
11405		9.728845	0.959809	-0.736551	-0.001475	0.001067	0.001272	1.000000	-0.000018	0.000013	0.000016	-0.086519	0.094484	0.991760	0.981180	-0.164414	0.101260	0.172626	0.981856	-0.078481
11406		9.761564	0.949877	-0.712728	-0.001504	-0.000595	0.003829	1.000000	-0.000019	-0.000007	0.000048	-0.086507	0.094573	0.991752	0.981174	-0.164447	0.101266	0.172667	0.981842	-0.078566
11407		9.708789	1.031881	-0.667727	0.006436	0.001632	0.000755	1.000000	0.000080	0.000020	0.000009	-0.086550	0.094630	0.991743	0.981175	-0.164408	0.101315	0.172638	0.981843	-0.078619
11408		9.716005	0.960070	-0.693452	0.005393	0.000906	0.001913	1.000000	0.000067	0.000011	0.000024	-0.086581	0.094673	0.991736	0.981200	-0.164245	0.101341	0.172482	0.981866	-0.078672
11409		9.719617	0.938823	-0.682422	0.000694	0.000462	-0.000078	1.000000	0.000009	0.000006	-0.000001	-0.086656	0.094752	0.991722	0.981187	-0.164266	0.101430	0.172517	0.981855	-0.078735
11410		9.750336	0.988661	-0.693112	0.000912	-0.000401	-0.001176	1.000000	0.000011	-0.000005	-0.000015	-0.086707	0.094843	0.991709	0.981167	-0.164344	0.101503	0.172608	0.981833	-0.078807
11411		9.739987	1.014477	-0.692888	0.000587	0.000928	-0.000570	1.000000	0.000007	0.000012	-0.000007	-0.086782	0.094912	0.991696	0.981154	-0.164368	0.101591	0.172645	0.981822	-0.078859
11412		9.739448	0.991841	-0.700988	0.007670	-0.000165	0.001055	1.000000	0.000096	-0.000002	0.000013	-0.086834	0.094985	0.991684	0.981184	-0.164155	0.101637	0.172444	0.981851	-0.078943
11413		9.687034	1.007244	-0.671308	0.011657	-0.001707	0.001515	1.000000	0.000146	-0.000021	0.000019	-0.086851	0.095109	0.991671	0.981223	-0.163915	0.101657	0.172218	0.981879	-0.079087
11414		9.732094	0.943118	-0.686490	0.014893	-0.000059	0.000611	1.000000	0.000186	-0.000001	0.000008	-0.086917	0.095195	0.991657	0.981278	-0.163550	0.101707	0.171868	0.981931	-0.079198
11415		9.728393	0.934103	-0.685770	0.013011	-0.003834	-0.001859	1.000000	0.000163	-0.000048	-0.000023	-0.087000	0.095378	0.991632	0.981314	-0.163276	0.101800	0.171619	0.981959	-0.079391
11416		9.739406	1.020766	-0.716403	0.015442	-0.002249	-0.001096	1.000000	0.000193	-0.000028	-0.000014	-0.087030	0.095562	0.991612	0.981328	-0.163160	0.101851	0.171525	0.981961	-0.079577
11417		9.717298	1.093551	-0.778527	0.015004	-0.000585	0.003179	1.000000	0.000188	-0.000007	0.000040	-0.087036	0.095659	0.991602	0.981382	-0.162836	0.101848	0.171211	0.982005	-0.079705
11418		9.726658	1.051174	-0.747119	0.005415	0.002372	0.005596	1.000000	0.000068	0.000030	0.000070	-0.086979	0.095680	0.991605	0.981397	-0.162785	0.101791	0.171158	0.982011	-0.079741
11419		9.725971	0.907498	-0.704896	0.003088	0.000257	0.007406	1.000000	0.000039	0.000003	0.000093	-0.086827	0.095751	0.991611	0.981387	-0.162921	0.101664	0.171288	0.981982	-0.079823
11420		9.734447	0.939148	-0.679437	0.008369	0.000236	0.003050	1.000000	0.000105	0.000003	0.000038	-0.086785	0.095817	0.991608	0.981402	-0.162857	0.101629	0.171228	0.981986	-0.079902
11421		9.717142	1.035537	-0.714255	0.009712	-0.002025	0.003843	1.000000	0.000121	-0.000025	0.000048	-0.086761	0.095954	0.991597	0.981431	-0.162688	0.101614	0.171072	0.982001	-0.080057
11422		9.728777	1.054063	-0.758649	-0.000094	0.001863	0.005277	1.000000	-0.000001	0.000023	0.000066	-0.086658	0.095992	0.991603	0.981405	-0.162895	0.101535	0.171274	0.981963	-0.080091
11423		9.731301	0.956662	-0.750790	-0.000792	0.001337	0.007438	1.000000	-0.000010	0.000017	0.000093	-0.086581	0.096039	0.991605	0.981391	-0.163013	0.101477	0.171390	0.981939	-0.080138
11424		9.714326	0.955464	-0.726793	0.003334	0.000988	0.005831	1.000000	0.000042	0.000012	0.000073	-0.086475	0.096096	0.991609	0.981381	-0.163129	0.101392	0.171504	0.981914	-0.080200
11425		9.742085	0.987305	-0.715361	0.004137	0.000986	0.006243	1.000000	0.000052	0.000012	0.000078	-0.086369	0.096136	0.991614	0.981386	-0.163158	0.101296	0.171528	0.981905	-0.080255
11426		9.699059	0.961234	-0.713877	0.003901	0.000387	0.003653	1.000000	0.000049	0.000005	0.000046	-0.086270	0.096211	0.991615	0.981367	-0.163317	0.101224	0.171686	0.981871	-0.080329
11427		9.732805	0.936602	-0.709198	-0.000809	-0.000126	0.003750	1.000000	-0.000010	-0.000002	0.000047	-0.086283	0.096284	0.991607	0.981366	-0.163309	0.101249	0.171688	0.981865	-0.080399
11428		9.730037	1.009127	-0.724645	0.002992	0.000854	0.002747	1.000000	0.000037	0.000011	0.000034	-0.086309	0.096342	0.991599	0.981374	-0.163241	0.101279	0.171628	0.981871	-0.080458
11429		9.729657	1.015618	-0.745191	0.003207	-0.000075	0.003732	1.000000	0.000040	-0.000001	0.000047	-0.086273	0.096415	0.991595	0.981378	-0.163233	0.101256	0.171624	0.981865	-0.080536
11430		9.711136	1.006745	-0.770527	0.004029	0.001387	0.007830	1.000000	0.000050	0.000017	0.000098	-0.086114	0.096439	0.991607	0.981381	-0.163308	0.101108	0.171688	0.981850	-0.080580
11431		9.734922	0.939748	-0.719730	0.003816	0.002317	0.006844	1.000000	0.000048	0.000029	0.000086	-0.086041	0.096452	0.991612	0.981396	-0.163261	0.101035	0.171636	0.981857	-0.080611
11432		9.728507	0.972554	-0.720827	0.010350	0.001958	0.006475	1.000000	0.000129	0.000024	0.000081	-0.085929	0.096487	0.991618	0.981421	-0.163181	0.100924	0.171552	0.981867	-0.080672
11433		9.758479	1.005227	-0.759981	0.008290	0.002166	0.006237	1.000000	0.000104	0.000027	0.000078	-0.085845	0.096486	0.991626	0.981459	-0.163013	0.100826	0.171376	0.981895	-0.080703
11434		9.680715	0.987189	-0.731132	0.003604	0.003248	0.005857	1.000000	0.000045	0.000041	0.000073	-0.085802	0.096472	0.991631	0.981478	-0.162929	0.100774	0.171287	0.981910	-0.080706
11435		9.727514	0.959332	-0.708303	0.002451	0.002927	0.008605	1.000000	0.000031	0.000037	0.000108	-0.085708	0.096447	0.991641	0.981503	-0.162842	0.100670	0.171190	0.981927	-0.080707
11436		9.716878	0.960529	-0.715565	0.007167	0.003500	0.006425	1.000000	0.000090	0.000044	0.000080	-0.085659	0.096419	0.991648	0.981537	-0.162679	0.100603	0.171021	0.981957	-0.080704
11437		9.733258	0.972851	-0.719463	0.003044	0.003916	0.005950	1.000000	0.000038	0.000049	0.000074	-0.085593	0.096391	0.991656	0.981547	-0.162663	0.100532	0.170996	0.981962	-0.080689
11438		9.735709	1.001940	-0.721656	0.003848	0.003914	0.006362	1.000000	0.000048	0.000049	0.000080	-0.085491	0.096371	0.991667	0.981544	-0.162739	0.100434	0.171062	0.981951	-0.080680
11439		9.712596	0.998198	-0.725740	0.005669	0.002981	0.008171	1.000000	0.000071	0.000037	0.000102	-0.085306	0.096370	0.991683	0.981542	-0.162860	0.100260	0.171168	0.981931	-0.080698
11440		9.709794	0.913258	-0.717421	0.003957	0.003451	0.006853	1.000000	0.000049	0.000043	0.000086	-0.085191	0.096352	0.991695	0.981547	-0.162901	0.100146	0.171197	0.981926	-0.080697
11441		9.730263	0.927253	-0.702680	0.007014	0.000842	0.004805	1.000000	0.000088	0.000011	0.000060	-0.085115	0.096409	0.991696	0.981554	-0.162898	0.100081	0.171194	0.981921	-0.080765
11442		9.716403	1.009772	-0.746768	0.010123	0.001357	0.003881	1.000000	0.000127	0.000017	0.000049	-0.085069	0.096474	0.991694	0.981569	-0.162833	0.100041	0.171131	0.981926	-0.080844
11443		9.716368	0.978457	-0.734086	0.005754	0.000988	0.007058	1.000000	0.000072	0.000012	0.000088	-0.085001	0.096508	0.991696	0.981602	-0.162677	0.099967	0.170973	0.981948	-0.080905
11444		9.739250	0.956288	-0.737179	0.006213	0.000846	0.004391	1.000000	0.000078	0.000011	0.000055	-0.084932	0.096571	0.991696	0.981607	-0.162683	0.099910	0.170981	0.981941	-0.080977
11445		9.722823	0.978351	-0.705291	0.009913	0.002286	0.002893	1.000000	0.000124	0.000029	0.000036	-0.084948	0.096593	0.991692	0.981643	-0.162466	0.099912	0.170767	0.981975	-0.081018
11446		9.707717	0.949144	-0.719683	0.010209	-0.000637	0.002769	1.000000	0.000128	-0.000008	0.000035	-0.084882	0.096688	0.991689	0.981660	-0.162398	0.099857	0.170703	0.981977	-0.081130
11447		9.730716	0.957499	-0.735548	0.001740	0.001064	0.002917	1.000000	0.000022	0.000013	0.000036	-0.084819	0.096741	0.991689	0.981640	-0.162539	0.099816	0.170845	0.981948	-0.081178
11448		9.710097	0.911533	-0.677376	0.003965	-0.003137	0.000938	1.000000	0.000050	-0.000039	0.000012	-0.084813	0.096910	0.991673	0.981627	-0.162602	0.099844	0.170924	0.981921	-0.081339
11449		9.733194	1.017066	-0.752468	0.011445	-0.002374	0.000992	1.000000	0.000143	-0.000030	0.000012	-0.084875	0.097043	0.991655	0.981679	-0.162252	0.099899	0.170592	0.981966	-0.081494
11450		9.750654	1.045356	-0.789161	0.015896	0.002533	0.004689	1.000000	0.000199	0.000032	0.000059	-0.084832	0.097059	0.991657	0.981733	-0.161966	0.099835	0.170305	0.982011	-0.081547
11451		9.716689	1.044856	-0.801042	0.014613	0.007863	0.007089	1.000000	0.000183	0.000098	0.000089	-0.084718	0.096940	0.991678	0.981773	-0.161812	0.099689	0.170129	0.982049	-0.081465
11452		9.749050	1.010263	-0.783482	0.013944	0.008821	0.012923	1.000000	0.000174	0.000110	0.000162	-0.084453	0.096775	0.991717	0.981823	-0.161697	0.099390	0.169976	0.982084	-0.081360
11453		9.734852	0.970755	-0.774751	0.019801	0.014657	0.016448	1.000000	0.000248	0.000183	0.000206	-0.084159	0.096443	0.991774	0.981917	-0.161354	0.099013	0.169575	0.982173	-0.081120
11454		9.729188	0.897682	-0.754392	0.010687	0.012425	0.011892	1.000000	0.000134	0.000155	0.000149	-0.084016	0.096174	0.991812	0.981983	-0.161081	0.098803	0.169264	0.982244	-0.080908
11455		9.740995	0.914018	-0.675647	0.010100	0.011503	0.012463	1.000000	0.000126	0.000144	0.000156	-0.083797	0.095940	0.991854	0.982021	-0.161009	0.098540	0.169151	0.982279	-0.080723
11456		9.708567	0.957446	-0.670348	0.005914	0.008794	0.010873	1.000000	0.000074	0.000110	0.000136	-0.083635	0.095763	0.991884	0.982056	-0.160916	0.098342	0.169027	0.982311	-0.080586
11457		9.722760	0.908270	-0.717640	0.006450	0.006592	0.009181	1.000000	0.000081	0.000082	0.000115	-0.083507	0.095647	0.991906	0.982090	-0.160804	0.098186	0.168894	0.982341	-0.080505
11458		9.730493	0.923920	-0.719361	0.000573	0.005885	0.007873	1.000000	0.000007	0.000074	0.000098	-0.083410	0.095558	0.991923	0.982098	-0.160824	0.098077	0.168897	0.982346	-0.080433
11459		9.704045	0.904412	-0.700678	-0.002433	0.005023	0.005136	1.000000	-0.000030	0.000063	0.000064	-0.083384	0.095508	0.991930	0.982081	-0.160940	0.098052	0.169006	0.982332	-0.080377
11460		9.771879	0.915425	-0.714743	0.003480	0.007433	0.001806	1.000000	0.000043	0.000093	0.000023	-0.083464	0.095416	0.991932	0.982084	-0.160889	0.098111	0.168952	0.982350	-0.080278
11461		9.719510	1.005333	-0.750250	0.005940	0.003836	0.002420	1.000000	0.000074	0.000048	0.000030	-0.083490	0.095415	0.991930	0.982085	-0.160868	0.098135	0.168934	0.982353	-0.080275
11462		9.703869	0.983082	-0.723559	-0.000761	0.008149	0.007070	1.000000	-0.000010	0.000102	0.000088	-0.083398	0.095271	0.991952	0.982078	-0.160977	0.098028	0.169021	0.982349	-0.080139
11463		9.730521	0.902991	-0.740541	0.002782	0.006918	0.003963	1.000000	0.000035	0.000086	0.000050	-0.083376	0.095164	0.991964	0.982085	-0.160961	0.097987	0.168992	0.982362	-0.080039
11464		9.726344	0.900558	-0.697858	0.000230	0.005796	0.002717	1.000000	0.000003	0.000072	0.000034	-0.083388	0.095096	0.991969	0.982073	-0.161029	0.097993	0.169055	0.982358	-0.079964
11465		9.708547	0.945267	-0.666653	-0.000254	0.004519	-0.000368	1.000000	-0.000003	0.000056	-0.000005	-0.083453	0.095080	0.991965	0.982046	-0.161147	0.098064	0.169176	0.982340	-0.079924
11466		9.741750	0.965709	-0.714545	0.007694	0.005071	-0.000900	1.000000	0.000096	0.000063	-0.000011	-0.083605	0.095031	0.991957	0.982082	-0.160858	0.098183	0.168895	0.982392	-0.079880
11467		9.728621	0.975063	-0.751748	0.002828	0.003382	0.001267	1.000000	0.000035	0.000042	0.000016	-0.083647	0.095033	0.991954	0.982077	-0.160863	0.098225	0.168903	0.982391	-0.079874
11468		9.708094	0.959356	-0.704945	0.002861	0.004974	0.000784	1.000000	0.000036	0.000062	0.000010	-0.083680	0.095014	0.991953	0.982054	-0.160978	0.098265	0.169020	0.982374	-0.079839
11469		9.735614	0.969509	-0.760826	0.008604	0.004553	0.002081	1.000000	0.000108	0.000057	0.000026	-0.083693	0.094986	0.991954	0.982074	-0.160855	0.098263	0.168895	0.982397	-0.079821
11470		9.735074	0.976132	-0.720401	0.003983	0.003584	0.002675	1.000000	0.000050	0.000045	0.000033	-0.083746	0.094973	0.991951	0.982089	-0.160739	0.098303	0.168781	0.982417	-0.079811
11471		9.723722	0.955761	-0.735396	0.004576	0.004454	0.004176	1.000000	0.000057	0.000056	0.000052	-0.083749	0.094936	0.991954	0.982103	-0.160659	0.098293	0.168698	0.982434	-0.079782
11472		9.729676	0.964370	-0.726272	0.002192	0.005998	0.004533	1.000000	0.000027	0.000075	0.000057	-0.083753	0.094857	0.991961	0.982113	-0.160608	0.098280	0.168640	0.982449	-0.079709
11473		9.726103	0.917552	-0.690171	0.001462	0.003999	0.003022	1.000000	0.000018	0.000050	0.000038	-0.083727	0.094854	0.991964	0.982088	-0.160768	0.098267	0.168797	0.982424	-0.079694
11474		9.728942	0.910389	-0.719412	0.004442	0.003379	0.002088	1.000000	0.000056	0.000042	0.000026	-0.083742	0.094856	0.991963	0.982086	-0.160771	0.098282	0.168802	0.982423	-0.079693
11475		9.733799	0.971264	-0.725196	-0.000179	0.002464	0.000605	1.000000	-0.000002	0.000031	0.000008	-0.083828	0.094880	0.991953	0.982078	-0.160769	0.098371	0.168809	0.982421	-0.079702
11476		9.728452	0.954097	-0.711715	-0.003720	0.003753	0.001630	1.000000	-0.000046	0.000047	0.000020	-0.083865	0.094866	0.991951	0.982051	-0.160907	0.098417	0.168948	0.982400	-0.079669
11477		9.731238	0.910250	-0.707459	0.006999	0.004557	0.001256	1.000000	0.000087	0.000057	0.000016	-0.083910	0.094840	0.991950	0.982062	-0.160815	0.098449	0.168858	0.982417	-0.079645
11478		9.728014	0.967606	-0.751414	0.004165	0.001120	0.002068	1.000000	0.000052	0.000014	0.000026	-0.083931	0.094895	0.991943	0.982064	-0.160785	0.098477	0.168835	0.982417	-0.079698
11479		9.717894	0.956109	-0.717626	0.002274	0.004105	-0.000721	1.000000	0.000028	0.000051	-0.000009	-0.084022	0.094889	0.991936	0.982052	-0.160807	0.098568	0.168863	0.982414	-0.079674
11480		9.723036	0.943201	-0.716614	0.001466	0.004054	0.000944	1.000000	0.000018	0.000051	0.000012	-0.084044	0.094881	0.991935	0.982029	-0.160927	0.098598	0.168984	0.982395	-0.079651
11481		9.720071	0.956665	-0.706381	0.004551	0.002971	0.000504	1.000000	0.000057	0.000037	0.000006	-0.084103	0.094891	0.991929	0.982034	-0.160863	0.098653	0.168926	0.982405	-0.079658
11482		9.729241	0.915557	-0.734307	0.002558	0.001178	-0.000832	1.000000	0.000032	0.000015	-0.000010	-0.084182	0.094958	0.991916	0.982022	-0.160881	0.098744	0.168957	0.982395	-0.079707
11483		9.724560	0.958315	-0.746773	0.000735	0.002054	-0.000567	1.000000	0.000009	0.000026	-0.000007	-0.084252	0.094996	0.991906	0.982004	-0.160943	0.098825	0.169028	0.982381	-0.079727
11484		9.728267	0.997323	-0.700509	0.000491	0.001387	-0.001070	1.000000	0.000006	0.000017	-0.000013	-0.084348	0.095052	0.991892	0.981988	-0.160972	0.098931	0.169070	0.982371	-0.079762
11485		9.731665	0.946649	-0.736517	0.003363	0.001176	-0.000420	1.000000	0.000042	0.000015	-0.000005	-0.084396	0.095141	0.991880	0.981958	-0.161112	0.099006	0.169223	0.982340	-0.079827
11486		9.715417	0.932938	-0.731620	0.002558	0.001178	-0.000832	1.000000	0.000032	0.000015	-0.000010	-0.084473	0.095207	0.991867	0.981945	-0.161133	0.099095	0.169257	0.982330	-0.079876
