// Start Time: Unknown
// Update Rate: 40.0Hz
// Filter Profile: human (46.1)
// Firmware Version: 4.3.4
PacketCounter	SampleTimeFine	Acc_X	Acc_Y	Acc_Z	Gyr_X	Gyr_Y	Gyr_Z	OriInc_q0	OriInc_q1	OriInc_q2	OriInc_q3	Mat[1][1]	Mat[2][1]	Mat[3][1]	Mat[1][2]	Mat[2][2]	Mat[3][2]	Mat[1][3]	Mat[2][3]	Mat[3][3]
10839		9.067799	-1.183220	3.453851	0.140376	0.022269	0.039929	0.999998	0.001755	0.000278	0.000499	0.368673	0.057258	0.927794	0.152680	0.980816	-0.121200	-0.916935	0.186338	0.352858
10840		9.205957	-0.938665	3.437371	0.141099	-0.017113	0.047697	0.999998	0.001764	-0.000214	0.000596	0.368460	0.058507	0.927801	0.149004	0.981398	-0.121061	-0.917625	0.182853	0.352888
10841		9.697750	-0.971939	3.414621	0.173598	-0.077158	0.075074	0.999997	0.002170	-0.000964	0.000938	0.366963	0.060697	0.928253	0.144330	0.982070	-0.121273	-0.918970	0.178478	0.351624
10842		9.817309	-0.997431	3.492241	0.245563	-0.114521	0.081184	0.999994	0.003070	-0.001432	0.001015	0.364592	0.063171	0.929022	0.137943	0.983024	-0.120978	-0.920893	0.172260	0.349688
10843		9.539143	-0.974403	3.510247	0.284008	-0.149533	0.041617	0.999992	0.003550	-0.001869	0.000520	0.361226	0.064768	0.930226	0.131027	0.984162	-0.119404	-0.923227	0.165016	0.347018
10844		9.311429	-0.893886	3.424066	0.210665	-0.179470	-0.011108	0.999994	0.002633	-0.002243	-0.000139	0.356966	0.065117	0.931845	0.126268	0.985048	-0.117205	-0.925544	0.159500	0.343406
10845		9.327497	-1.015586	3.291937	0.171786	-0.184992	-0.029452	0.999995	0.002147	-0.002312	-0.000368	0.352498	0.064942	0.933557	0.122561	0.985793	-0.114853	-0.927752	0.154903	0.339530
10846		9.136429	-1.204343	3.155468	0.270314	-0.158751	-0.018629	0.999992	0.003379	-0.001984	-0.000233	0.348627	0.064875	0.935014	0.116463	0.986871	-0.111897	-0.929998	0.147905	0.336494
10847		9.021268	-1.187855	3.028941	0.433278	-0.126917	-0.010570	0.999984	0.005416	-0.001586	-0.000132	0.345472	0.064906	0.936182	0.106485	0.988451	-0.107825	-0.932368	0.136940	0.334570
10848		9.039969	-1.013407	3.012639	0.515170	-0.107872	-0.015884	0.999978	0.006440	-0.001348	-0.000199	0.342681	0.064774	0.937216	0.094626	0.990167	-0.103032	-0.934674	0.123992	0.333182
10849		9.080159	-1.091363	3.079795	0.564889	-0.108440	-0.040062	0.999974	0.007061	-0.001355	-0.000501	0.339760	0.064026	0.938330	0.081775	0.991891	-0.097291	-0.936950	0.109788	0.331770
10850		9.136602	-1.067410	3.242025	0.602678	-0.111353	-0.078605	0.999970	0.007533	-0.001392	-0.000983	0.336669	0.062347	0.939557	0.068352	0.993555	-0.090422	-0.939139	0.094663	0.330238
10851		9.335787	-1.089685	3.247905	0.626010	-0.102815	-0.116196	0.999968	0.007825	-0.001285	-0.001452	0.333766	0.059741	0.940761	0.054643	0.995086	-0.082577	-0.941071	0.078968	0.328861
10852		9.473357	-1.093152	3.219141	0.678398	-0.106187	-0.147461	0.999961	0.008480	-0.001327	-0.001843	0.330813	0.056420	0.942008	0.039939	0.996480	-0.073709	-0.942851	0.062007	0.327395
10853		9.649189	-1.073525	3.234554	0.748315	-0.096438	-0.166777	0.999953	0.009354	-0.001205	-0.002085	0.328116	0.052693	0.943167	0.023711	0.997669	-0.063987	-0.944340	0.043359	0.326101
10854		9.901264	-1.099662	3.165598	0.854252	-0.064088	-0.190662	0.999940	0.010678	-0.000801	-0.002383	0.326204	0.048462	0.944056	0.005098	0.998580	-0.053022	-0.945286	0.022109	0.325494
10855		9.958596	-0.894437	3.225348	0.942859	-0.044765	-0.230781	0.999926	0.011785	-0.000560	-0.002885	0.324802	0.043356	0.944788	-0.015276	0.999059	-0.040594	-0.945659	-0.001248	0.325159
10856		9.617666	-0.828281	3.326497	0.940249	-0.039192	-0.275857	0.999925	0.011753	-0.000490	-0.003448	0.323593	0.037252	0.945463	-0.035285	0.999005	-0.027285	-0.945538	-0.024532	0.324586
10857		8.883982	-0.762740	3.208398	0.979640	-0.028128	-0.322114	0.999917	0.012245	-0.000352	-0.004026	0.322916	0.030141	0.945948	-0.055775	0.998362	-0.012771	-0.944783	-0.048636	0.324068
10858		8.645069	0.015193	3.034790	1.024305	-0.065783	-0.323726	0.999910	0.012803	-0.000822	-0.004046	0.321616	0.023074	0.946589	-0.077265	0.997009	0.001949	-0.943713	-0.073765	0.322436
10859		9.765183	0.800468	2.855894	0.981449	-0.150760	-0.207360	0.999920	0.012268	-0.001884	-0.002592	0.318359	0.018492	0.947790	-0.098672	0.995025	0.013730	-0.942821	-0.097891	0.318600
10860		10.944188	1.374901	2.515598	1.002732	-0.181129	-0.031236	0.999919	0.012534	-0.002264	-0.000390	0.313968	0.017577	0.949271	-0.121877	0.992303	0.021936	-0.941578	-0.122582	0.313694
10861		11.247243	1.941160	2.124399	0.906256	-0.172742	0.086724	0.999933	0.011328	-0.002159	0.001084	0.308920	0.019093	0.950896	-0.143975	0.989215	0.026911	-0.940128	-0.145218	0.308337
10862		10.648422	1.839679	1.700589	0.719422	-0.173627	0.130097	0.999956	0.008993	-0.002170	0.001626	0.303304	0.020720	0.952669	-0.161568	0.986406	0.029985	-0.939097	-0.163016	0.302528
10863		10.124992	2.106947	1.562207	0.591344	-0.214870	0.109837	0.999968	0.007392	-0.002686	0.001373	0.296212	0.021047	0.954890	-0.176177	0.983806	0.032967	-0.938733	-0.177995	0.295123
10864		10.038641	2.541580	1.654309	0.309365	-0.297394	0.108800	0.999985	0.003867	-0.003717	0.001360	0.287044	0.020237	0.957704	-0.184048	0.982315	0.034406	-0.940070	-0.186140	0.285692
10865		9.561734	2.229008	1.555628	0.024154	-0.357071	0.115174	0.999989	0.000302	-0.004463	0.001440	0.276305	0.018651	0.960889	-0.185150	0.982116	0.034177	-0.943067	-0.187352	0.274816
10866		8.619836	2.058855	1.551309	-0.147563	-0.365806	0.057809	0.999988	-0.001845	-0.004573	0.000723	0.265441	0.015221	0.964007	-0.181663	0.982755	0.034504	-0.946858	-0.184283	0.263629
10867		8.481673	1.893912	1.373327	-0.357492	-0.324734	0.000480	0.999982	-0.004469	-0.004059	0.000006	0.256135	0.010496	0.966584	-0.172562	0.984375	0.035039	-0.951114	-0.175771	0.253944
10868		9.265005	1.771137	1.003021	-0.344672	-0.225011	-0.001157	0.999987	-0.004308	-0.002813	-0.000014	0.249370	0.006186	0.968388	-0.163838	0.985834	0.035893	-0.954448	-0.167609	0.246851
10869		10.308016	1.763936	0.650481	-0.152079	-0.113695	0.021021	0.999997	-0.001901	-0.001421	0.000263	0.244349	0.002535	0.969684	-0.159694	0.986448	0.037662	-0.956447	-0.164055	0.241443
10870		10.488964	1.584591	0.764406	0.100958	-0.047595	0.026011	0.999999	0.001262	-0.000595	0.000325	0.240654	-0.000825	0.970611	-0.161289	0.986062	0.040829	-0.957116	-0.166374	0.237167
10871		10.172901	1.472313	1.070611	0.253018	-0.026343	-0.027984	0.999995	0.003163	-0.000329	-0.000350	0.237926	-0.005085	0.971270	-0.166613	0.984950	0.045971	-0.956886	-0.172764	0.233498
10872		10.052742	1.503869	1.283225	0.282010	-0.022251	-0.103163	0.999993	0.003525	-0.000278	-0.001290	0.235828	-0.010757	0.971735	-0.172931	0.983515	0.052856	-0.956285	-0.180508	0.230080
10873		9.994446	1.661523	1.425643	0.179938	-0.028839	-0.154805	0.999996	0.002249	-0.000360	-0.001935	0.233899	-0.017666	0.972100	-0.176231	0.982503	0.060258	-0.956156	-0.185408	0.226693
10874		9.706206	1.371853	1.454987	0.021994	-0.004239	-0.204189	0.999997	0.000275	-0.000053	-0.002552	0.232399	-0.026010	0.972273	-0.175122	0.982186	0.068134	-0.956725	-0.186101	0.223704
10875		9.552115	0.975063	1.291111	-0.013977	0.037555	-0.242006	0.999995	-0.000175	0.000469	-0.003025	0.232679	-0.034754	0.971932	-0.172801	0.981983	0.076481	-0.957079	-0.185747	0.222481
10876		9.572615	0.943619	1.304727	0.077920	0.069658	-0.220970	0.999995	0.000974	0.000871	-0.002762	0.232747	-0.042981	0.971587	-0.173399	0.981182	0.084944	-0.956954	-0.188242	0.220915
10877		9.639033	0.997276	1.342529	0.228516	0.096664	-0.154205	0.999993	0.002856	0.001208	-0.001928	0.233738	-0.048900	0.971069	-0.178084	0.979686	0.092199	-0.955852	-0.194482	0.220281
10878		9.824271	0.934220	1.192370	0.432659	0.138175	-0.081953	0.999983	0.005408	0.001727	-0.001024	0.235482	-0.052375	0.970466	-0.187756	0.977284	0.098301	-0.953570	-0.205359	0.220299
10879		10.166537	1.103492	1.219478	0.566582	0.141710	-0.050672	0.999973	0.007082	0.001771	-0.000633	0.237756	-0.054596	0.969789	-0.201143	0.974010	0.104147	-0.950270	-0.219828	0.220595
10880		9.880266	1.007378	1.572329	0.504343	0.129627	-0.057441	0.999979	0.006304	0.001620	-0.000718	0.239763	-0.057032	0.969155	-0.211862	0.971139	0.109562	-0.947432	-0.231596	0.220760
10881		9.134750	0.688080	1.686380	0.450036	0.132995	-0.090371	0.999982	0.005625	0.001662	-0.001130	0.241654	-0.060202	0.968493	-0.221092	0.968406	0.115362	-0.944840	-0.242004	0.220709
10882		9.242507	1.093324	1.603689	0.387014	0.092836	-0.114935	0.999987	0.004838	0.001160	-0.001437	0.242872	-0.063914	0.967951	-0.229087	0.965824	0.121254	-0.942620	-0.251195	0.219929
10883		10.302807	1.535298	1.721338	0.181770	-0.001180	-0.046474	0.999997	0.002272	-0.000015	-0.000581	0.241496	-0.066666	0.968109	-0.231904	0.964766	0.124285	-0.942285	-0.254523	0.217527
10884		10.610602	1.155135	1.858237	0.104740	-0.059901	0.053056	0.999999	0.001309	-0.000749	0.000663	0.238901	-0.067055	0.968726	-0.232637	0.964608	0.124142	-0.942765	-0.255020	0.214846
10885		9.981399	0.739398	1.847485	0.212849	-0.060262	0.084118	0.999996	0.002661	-0.000753	0.001051	0.235325	-0.066735	0.969623	-0.236538	0.963711	0.123735	-0.942694	-0.258470	0.211000
10886		9.669156	0.911178	1.839472	0.316142	-0.077646	0.083016	0.999991	0.003952	-0.000971	0.001038	0.231603	-0.066405	0.970541	-0.242369	0.962269	0.123676	-0.942135	-0.263873	0.206770
10887		9.619824	1.242315	1.983581	0.295655	-0.117063	0.089087	0.999991	0.003696	-0.001463	0.001114	0.227194	-0.065912	0.971616	-0.248462	0.960765	0.123274	-0.941621	-0.269417	0.201904
10888		9.594844	1.369996	2.114534	0.168461	-0.155249	0.109757	0.999995	0.002106	-0.001941	0.001372	0.221943	-0.065157	0.972880	-0.251727	0.960112	0.121729	-0.942006	-0.271917	0.196689
10889		9.598112	1.265991	2.242174	-0.001405	-0.189598	0.131232	0.999996	-0.000018	-0.002370	0.001640	0.215585	-0.064187	0.974373	-0.251405	0.960551	0.118901	-0.943567	-0.270595	0.190944
10890		9.668477	1.112562	2.256848	-0.113472	-0.211237	0.159276	0.999994	-0.001418	-0.002640	0.001991	0.208850	-0.062498	0.975949	-0.247732	0.962024	0.114620	-0.946050	-0.265713	0.185436
10891		9.813048	0.968999	2.088507	-0.108688	-0.214318	0.194401	0.999993	-0.001359	-0.002679	0.002430	0.201672	-0.059930	0.977618	-0.245670	0.963124	0.109720	-0.948143	-0.262299	0.179512
10892		9.846096	0.994670	1.983877	-0.026216	-0.218469	0.206170	0.999993	-0.000328	-0.002731	0.002577	0.194925	-0.056952	0.979163	-0.244892	0.963868	0.104814	-0.949754	-0.260220	0.173935
10893		9.809628	1.081763	2.056109	-0.016154	-0.221893	0.202574	0.999993	-0.000202	-0.002774	0.002532	0.188439	-0.053878	0.980606	-0.243989	0.964620	0.099886	-0.951294	-0.258080	0.168626
10894		9.887894	1.101591	2.134355	-0.030635	-0.215509	0.182004	0.999994	-0.000383	-0.002694	0.002275	0.182068	-0.051284	0.981948	-0.242548	0.965438	0.095394	-0.952902	-0.255538	0.163336
10895		9.902903	1.075861	2.132941	-0.075692	-0.188813	0.154600	0.999995	-0.000946	-0.002360	0.001932	0.176655	-0.049197	0.983043	-0.240584	0.966297	0.091592	-0.954417	-0.252684	0.158866
10896		9.812716	1.055737	2.035106	-0.086038	-0.154291	0.119337	0.999996	-0.001075	-0.001929	0.001492	0.172103	-0.047663	0.983925	-0.238174	0.967181	0.088512	-0.955852	-0.249579	0.155103
10897		9.832996	0.949665	1.932223	-0.070101	-0.123746	0.084945	0.999998	-0.000876	-0.001547	0.001062	0.168210	-0.046749	0.984642	-0.236182	0.967869	0.086301	-0.957039	-0.247072	0.151764
10898		9.961859	0.899175	1.982330	-0.011683	-0.090686	0.058101	0.999999	-0.000146	-0.001134	0.000726	0.165809	-0.046261	0.985072	-0.235075	0.968250	0.085039	-0.957730	-0.245666	0.149670
10899		9.849917	0.927247	2.006504	0.005580	-0.054948	0.036278	1.000000	0.000070	-0.000687	0.000453	0.164318	-0.046097	0.985330	-0.234793	0.968369	0.084459	-0.958056	-0.245227	0.148297
10900		9.681290	0.871832	1.967627	-0.005850	-0.042429	0.012857	1.000000	-0.000073	-0.000530	0.000161	0.163300	-0.046367	0.985486	-0.233923	0.968591	0.084334	-0.958443	-0.244299	0.147324
10901		9.559182	0.724729	1.977346	-0.005521	-0.034172	-0.015838	1.000000	-0.000069	-0.000427	-0.000198	0.163039	-0.047453	0.985478	-0.232896	0.968764	0.085179	-0.958737	-0.243402	0.146895
10902		9.636157	0.736988	1.897475	-0.001031	-0.027861	-0.028014	1.000000	-0.000013	-0.000348	-0.000350	0.162688	-0.048624	0.985479	-0.232328	0.968814	0.086156	-0.958935	-0.242970	0.146318
10903		9.897430	0.750939	1.819924	-0.032091	-0.025485	-0.031355	1.000000	-0.000401	-0.000319	-0.000392	0.162697	-0.049901	0.985413	-0.230331	0.969206	0.087109	-0.959415	-0.241144	0.146193
10904		9.989416	0.575945	1.745677	-0.015179	-0.013336	-0.030364	1.000000	-0.000190	-0.000167	-0.000380	0.162716	-0.051092	0.985349	-0.229784	0.969237	0.088202	-0.959543	-0.240769	0.145970
10905		9.839164	0.453603	1.753308	0.052830	-0.012262	-0.034625	1.000000	0.000660	-0.000153	-0.000433	0.162847	-0.052179	0.985271	-0.230403	0.968980	0.089397	-0.959372	-0.241568	0.145774
10906		9.557829	0.571513	1.786448	0.100042	-0.035232	-0.042177	0.999999	0.001251	-0.000440	-0.000527	0.162899	-0.053612	0.985185	-0.231150	0.968659	0.090933	-0.959184	-0.242539	0.145401
10907		9.579128	0.702205	1.824702	0.060673	-0.058384	-0.044222	0.999999	0.000758	-0.000730	-0.000553	0.162149	-0.055257	0.985218	-0.231538	0.968426	0.092422	-0.959217	-0.243102	0.144235
10908		9.704444	0.609358	1.815445	0.007548	-0.054716	-0.041285	1.000000	0.000094	-0.000684	-0.000516	0.161271	-0.056678	0.985281	-0.231085	0.968427	0.093533	-0.959475	-0.242768	0.143082
10909		9.774288	0.532124	1.642750	0.070382	-0.059602	-0.037359	0.999999	0.000880	-0.000745	-0.000467	0.160391	-0.057888	0.985355	-0.231964	0.968110	0.094633	-0.959410	-0.243745	0.141848
10910		9.724373	0.663377	1.676839	0.151093	-0.072566	-0.048938	0.999998	0.001889	-0.000907	-0.000612	0.159370	-0.059581	0.985419	-0.234318	0.967370	0.096385	-0.959008	-0.246262	0.140209
10911		9.887794	1.015081	1.852191	0.116772	-0.067297	-0.057860	0.999998	0.001460	-0.000841	-0.000723	0.158395	-0.061422	0.985464	-0.236408	0.966674	0.098249	-0.958657	-0.248534	0.138596
10912		9.941023	1.100657	1.850374	-0.050118	-0.029152	-0.052682	1.000000	-0.000626	-0.000364	-0.000659	0.158292	-0.063081	0.985375	-0.234355	0.967040	0.099555	-0.959177	-0.246686	0.138292
10913		9.902404	0.867776	1.702821	-0.128109	0.014490	-0.071332	0.999998	-0.001601	0.000181	-0.000892	0.159390	-0.064759	0.985089	-0.230621	0.967794	0.100937	-0.959900	-0.243271	0.139322
10914		9.868632	0.764557	1.574450	-0.058044	0.043523	-0.098417	0.999999	-0.000726	0.000544	-0.001230	0.161362	-0.067067	0.984614	-0.228157	0.968125	0.103335	-0.960160	-0.241321	0.140917
10915		9.658152	0.952660	1.618322	0.007130	0.064167	-0.124843	0.999998	0.000089	0.000802	-0.001561	0.163830	-0.069557	0.984033	-0.227632	0.967926	0.106317	-0.959866	-0.241415	0.142742
10916		9.593082	1.022428	1.648700	-0.002190	0.072802	-0.135805	0.999998	-0.000027	0.000910	-0.001698	0.166718	-0.072494	0.983336	-0.226261	0.967868	0.109714	-0.959693	-0.240782	0.144958
10917		9.752503	1.078086	1.638726	-0.007001	0.089726	-0.128938	0.999998	-0.000088	0.001122	-0.001612	0.170052	-0.075239	0.982559	-0.224641	0.967868	0.112993	-0.959489	-0.239938	0.147686
10918		9.664191	1.122629	1.633605	-0.000956	0.110500	-0.116561	0.999998	-0.000012	0.001381	-0.001457	0.173588	-0.077423	0.981770	-0.223935	0.967687	0.115907	-0.959021	-0.239973	0.150641
10919		9.392084	1.068356	1.581515	0.020045	0.106022	-0.106174	0.999998	0.000251	0.001325	-0.001327	0.177147	-0.079643	0.980957	-0.223138	0.967515	0.118848	-0.958555	-0.239942	0.153621
10920		9.400782	1.131144	1.655139	0.040159	0.083181	-0.108202	0.999998	0.000502	0.001040	-0.001353	0.180019	-0.081754	0.980260	-0.223293	0.967129	0.121665	-0.957984	-0.240787	0.155847
10921		9.783361	1.281154	1.767232	-0.041302	0.068250	-0.089101	0.999999	-0.000516	0.000853	-0.001114	0.182382	-0.083404	0.979684	-0.221800	0.967222	0.123634	-0.957884	-0.239843	0.157905
10922		10.005543	1.240463	1.669798	-0.071819	0.055148	-0.049386	0.999999	-0.000898	0.000689	-0.000617	0.184366	-0.084510	0.979218	-0.219157	0.967678	0.124777	-0.958112	-0.237607	0.159886
10923		9.929917	1.190216	1.610879	-0.017232	0.031545	-0.014582	1.000000	-0.000215	0.000394	-0.000182	0.185437	-0.084427	0.979023	-0.218651	0.967780	0.124872	-0.958021	-0.237220	0.161002
10924		9.731421	1.289025	1.720155	-0.002656	0.010741	-0.006379	1.000000	-0.000033	0.000134	-0.000080	0.185865	-0.084325	0.978950	-0.218720	0.967763	0.124887	-0.957923	-0.237328	0.161430
10925		9.622091	1.184064	1.724335	-0.040261	0.011423	-0.011990	1.000000	-0.000503	0.000143	-0.000150	0.186556	-0.084670	0.978789	-0.217145	0.968086	0.125132	-0.958147	-0.235884	0.162216
10926		9.719747	1.202237	1.661503	-0.013737	0.008038	-0.019025	1.000000	-0.000172	0.000100	-0.000238	0.187068	-0.084941	0.978668	-0.216694	0.968146	0.125448	-0.958149	-0.235539	0.162703
10927		9.894668	1.367824	1.673974	-0.025947	-0.005742	-0.002325	1.000000	-0.000324	-0.000072	-0.000029	0.187193	-0.084998	0.978639	-0.215904	0.968329	0.125400	-0.958303	-0.234766	0.162913
10928		9.694086	1.400117	1.785807	-0.103641	-0.020448	0.022838	0.999999	-0.001296	-0.000256	0.000285	0.186751	-0.084848	0.978736	-0.212873	0.969099	0.124631	-0.959067	-0.231622	0.162919
10929		9.488846	1.274927	1.730235	-0.164642	-0.026082	0.034066	0.999998	-0.002058	-0.000326	0.000426	0.186421	-0.084286	0.978848	-0.208275	0.970278	0.123214	-0.960140	-0.226839	0.163325
10930		9.563776	1.197153	1.708310	-0.190818	-0.020238	0.034432	0.999997	-0.002385	-0.000253	0.000430	0.185884	-0.083611	0.979008	-0.203722	0.971442	0.121646	-0.961220	-0.222057	0.163543
10931		9.810473	1.042021	1.594603	-0.143347	0.002955	0.037652	0.999998	-0.001792	0.000037	0.000471	0.185779	-0.082799	0.979097	-0.200309	0.972327	0.120234	-0.961958	-0.218459	0.164053
10932		9.789629	1.047496	1.552016	-0.043183	0.028947	0.030797	1.000000	-0.000540	0.000362	0.000385	0.186678	-0.081634	0.979024	-0.199436	0.972642	0.119130	-0.961965	-0.217492	0.165290
10933		9.616157	1.197803	1.644041	-0.030674	0.025366	0.014544	1.000000	-0.000383	0.000317	0.000182	0.187565	-0.081022	0.978905	-0.198471	0.972910	0.118554	-0.961992	-0.216521	0.166404
10934		9.623629	1.145460	1.744096	-0.070273	0.010326	0.004112	1.000000	-0.000878	0.000129	0.000051	0.188045	-0.080981	0.978816	-0.196398	0.973366	0.118261	-0.962324	-0.214476	0.167133
10935		9.720006	1.118644	1.757716	-0.105783	0.008070	0.002573	0.999999	-0.001322	0.000101	0.000032	0.188180	-0.080950	0.978793	-0.193911	0.973917	0.117827	-0.962802	-0.211971	0.167575
10936		9.884803	1.087862	1.663605	-0.100904	0.014751	0.007069	0.999999	-0.001261	0.000184	0.000088	0.188894	-0.080539	0.978689	-0.191311	0.974517	0.117120	-0.963182	-0.209358	0.168672
10937		10.141391	0.987978	1.657384	-0.069414	0.038254	-0.000832	1.000000	-0.000868	0.000478	-0.000010	0.190050	-0.080356	0.978480	-0.189441	0.974914	0.116858	-0.963324	-0.207573	0.170060
10938		10.194566	0.804258	1.608411	0.034055	0.088986	-0.023276	0.999999	0.000426	0.001112	-0.000291	0.192378	-0.080453	0.978017	-0.190151	0.974688	0.117582	-0.962722	-0.208591	0.172210
10939		9.840822	0.575268	1.533195	0.168245	0.138191	-0.077039	0.999996	0.002103	0.001727	-0.000963	0.196272	-0.081648	0.977144	-0.193637	0.973676	0.120253	-0.961240	-0.212813	0.175295
10940		9.564063	0.593112	1.555348	0.293787	0.166525	-0.144303	0.999989	0.003672	0.002082	-0.001804	0.201300	-0.084279	0.975897	-0.199507	0.971880	0.125084	-0.958997	-0.219878	0.178826
10941		9.636354	0.831838	1.625366	0.330062	0.176222	-0.165149	0.999987	0.004126	0.002203	-0.002064	0.206555	-0.087536	0.974511	-0.205910	0.969796	0.130756	-0.956523	-0.227670	0.182292
10942		9.573012	0.960317	1.635587	0.296280	0.169325	-0.135528	0.999989	0.003703	0.002117	-0.001694	0.211462	-0.089903	0.973243	-0.211921	0.967855	0.135451	-0.954135	-0.234893	0.185613
10943		9.483950	0.943465	1.593684	0.297724	0.141446	-0.082132	0.999991	0.003722	0.001768	-0.001027	0.215507	-0.091003	0.972253	-0.218343	0.965949	0.138811	-0.951779	-0.242199	0.188299
10944		9.681852	1.178443	1.627312	0.293575	0.090681	-0.030855	0.999993	0.003670	0.001134	-0.000386	0.217875	-0.091346	0.971693	-0.224771	0.964151	0.141036	-0.949741	-0.249137	0.189532
10945		9.856716	1.288416	1.668980	0.215263	0.038738	0.014532	0.999996	0.002691	0.000484	0.000182	0.218784	-0.090490	0.971568	-0.230173	0.962807	0.141505	-0.948237	-0.254588	0.189818
10946		9.789441	1.298835	1.683586	0.148785	-0.003331	0.032757	0.999998	0.001860	-0.000042	0.000409	0.218478	-0.089436	0.971735	-0.234319	0.961850	0.141209	-0.947292	-0.258547	0.189186
10947		9.618211	1.265435	1.770044	0.076872	-0.036869	0.012056	0.999999	0.000961	-0.000461	0.000151	0.217526	-0.089534	0.971939	-0.235892	0.961443	0.141361	-0.947121	-0.260023	0.188018
10948		9.646730	1.274206	1.823768	-0.010982	-0.053033	-0.016016	1.000000	-0.000137	-0.000663	-0.000200	0.216560	-0.090113	0.972102	-0.235408	0.961530	0.141576	-0.947462	-0.259500	0.187016
10949		9.697339	1.364192	1.781311	-0.082415	-0.061213	-0.045097	0.999999	-0.001030	-0.000765	-0.000564	0.215416	-0.091825	0.972196	-0.232684	0.962067	0.142426	-0.948396	-0.256895	0.185878
10950		9.689599	1.458751	1.894491	-0.154158	-0.076623	-0.052895	0.999997	-0.001927	-0.000958	-0.000661	0.214102	-0.093625	0.972314	-0.228387	0.963008	0.143019	-0.949737	-0.252684	0.184799
10951		9.716991	1.508398	2.048263	-0.200775	-0.100032	-0.038416	0.999996	-0.002510	-0.001250	-0.000480	0.212109	-0.094922	0.972625	-0.223570	0.964163	0.142852	-0.951329	-0.247750	0.183286
10952		9.839825	1.476249	2.079915	-0.206392	-0.111936	-0.011694	0.999996	-0.002580	-0.001399	-0.000146	0.209718	-0.095778	0.973060	-0.218514	0.965429	0.142122	-0.953032	-0.242433	0.181539
10953		9.772642	1.529855	2.087981	-0.182355	-0.119190	0.003020	0.999996	-0.002279	-0.001490	0.000038	0.206927	-0.096410	0.973594	-0.214108	0.966548	0.141218	-0.954641	-0.237676	0.179363
10954		9.586706	1.501082	2.113653	-0.187567	-0.115697	-0.003902	0.999996	-0.002345	-0.001446	-0.000049	0.204304	-0.097302	0.974060	-0.209198	0.967720	0.140547	-0.956293	-0.232485	0.177354
10955		9.573287	1.471779	2.060652	-0.188860	-0.100133	-0.018104	0.999996	-0.002361	-0.001252	-0.000226	0.202278	-0.098259	0.974386	-0.204367	0.968814	0.140123	-0.957767	-0.227476	0.175889
10956		9.670656	1.459223	1.994664	-0.156169	-0.079018	-0.028980	0.999998	-0.001952	-0.000988	-0.000362	0.200728	-0.099266	0.974605	-0.200451	0.969643	0.140045	-0.958920	-0.223471	0.174736
10957		9.731101	1.488892	1.991379	-0.128446	-0.058278	-0.035627	0.999998	-0.001606	-0.000728	-0.000445	0.199651	-0.100612	0.974688	-0.196746	0.970341	0.140464	-0.959912	-0.219810	0.173935
10958		9.793354	1.398067	1.918835	-0.084746	-0.035514	-0.043815	0.999999	-0.001059	-0.000444	-0.000548	0.199065	-0.101992	0.974664	-0.194270	0.970724	0.141258	-0.960537	-0.217468	0.173423
10959		9.822809	1.484598	1.929782	-0.040112	-0.019872	-0.058961	1.000000	-0.000501	-0.000248	-0.000737	0.198928	-0.103452	0.974539	-0.193123	0.970775	0.142474	-0.960797	-0.216548	0.173135
10960		9.732550	1.425027	1.919587	-0.042155	-0.009332	-0.067017	1.000000	-0.000527	-0.000117	-0.000838	0.199398	-0.105136	0.974262	-0.191447	0.970889	0.143955	-0.961035	-0.215224	0.173466
10961		9.743484	1.397160	1.853381	-0.026531	-0.005693	-0.076934	0.999999	-0.000332	-0.000071	-0.000962	0.199769	-0.107159	0.973966	-0.190084	0.970880	0.145808	-0.961229	-0.214263	0.173582
10962		9.728344	1.257864	1.796932	-0.018844	0.004541	-0.086413	0.999999	-0.000236	0.000057	-0.001080	0.200528	-0.109293	0.973573	-0.188914	0.970793	0.147892	-0.961301	-0.213578	0.174024
10963		9.721881	1.222759	1.697825	0.015194	0.014818	-0.085696	0.999999	0.000190	0.000185	-0.001071	0.201453	-0.111146	0.973172	-0.188956	0.970469	0.149953	-0.961100	-0.214095	0.174502
10964		9.734940	1.262273	1.715237	0.045576	0.011334	-0.070242	0.999999	0.000570	0.000142	-0.000878	0.202322	-0.112751	0.972807	-0.189563	0.970054	0.151857	-0.960797	-0.215132	0.174890
10965		9.715655	1.276849	1.748303	0.030505	0.005051	-0.047083	1.000000	0.000381	0.000063	-0.000589	0.202860	-0.113813	0.972571	-0.189987	0.969774	0.153113	-0.960600	-0.215836	0.175106
10966		9.758520	1.191108	1.705384	0.014359	-0.001601	-0.036480	1.000000	0.000179	-0.000020	-0.000456	0.203200	-0.114549	0.972414	-0.190267	0.969583	0.153974	-0.960473	-0.216305	0.175224
10967		9.717109	1.205980	1.689060	-0.000948	-0.005519	-0.034847	1.000000	-0.000012	-0.000069	-0.000436	0.203418	-0.115182	0.972293	-0.190265	0.969475	0.154654	-0.960427	-0.216453	0.175294
10968		9.661067	1.226577	1.702250	-0.031664	-0.017711	-0.025588	1.000000	-0.000396	-0.000221	-0.000320	0.203192	-0.115982	0.972246	-0.189097	0.969618	0.155188	-0.960706	-0.215382	0.175086
10969		9.665895	1.226409	1.747856	-0.033966	-0.022851	-0.009816	1.000000	-0.000425	-0.000286	-0.000123	0.202817	-0.116209	0.972297	-0.188306	0.969772	0.155187	-0.960940	-0.214564	0.174804
10970		9.647573	1.319712	1.743910	-0.065396	-0.022467	0.003808	1.000000	-0.000817	-0.000281	0.000048	0.202476	-0.116341	0.972352	-0.186370	0.970193	0.154891	-0.961390	-0.212578	0.174759
10971		9.637542	1.307031	1.742758	-0.081364	-0.027907	0.013887	0.999999	-0.001017	-0.000349	0.000174	0.201951	-0.116098	0.972490	-0.184371	0.970690	0.154170	-0.961885	-0.210434	0.174627
10972		9.640136	1.387412	1.846087	-0.101963	-0.035170	0.009999	0.999999	-0.001275	-0.000440	0.000125	0.201198	-0.116141	0.972641	-0.181634	0.971304	0.153554	-0.962564	-0.207559	0.174329
10973		9.679940	1.341219	1.901610	-0.145184	-0.031187	0.001927	0.999998	-0.001815	-0.000390	0.000024	0.200611	-0.116259	0.972748	-0.177955	0.972090	0.152880	-0.963373	-0.203774	0.174323
10974		9.660559	1.353669	1.861637	-0.141685	-0.015287	-0.008496	0.999998	-0.001771	-0.000191	-0.000106	0.200586	-0.116573	0.972716	-0.174195	0.972830	0.152508	-0.964065	-0.200033	0.174830
10975		9.635168	1.442241	1.906756	-0.145868	-0.001655	-0.019572	0.999998	-0.001823	-0.000021	-0.000245	0.200668	-0.117091	0.972637	-0.170431	0.973519	0.152360	-0.964721	-0.196341	0.175398
10976		9.727811	1.402723	1.924307	-0.144088	0.010635	-0.021755	0.999998	-0.001801	0.000133	-0.000272	0.201153	-0.117315	0.972510	-0.167145	0.974132	0.152082	-0.965194	-0.193142	0.176341
10977		9.771002	1.390415	1.907598	-0.075102	0.022492	-0.023297	0.999999	-0.000939	0.000281	-0.000291	0.201955	-0.117693	0.972298	-0.165212	0.974433	0.152267	-0.965360	-0.191386	0.177348
10978		9.800388	1.464019	1.884724	-0.021006	0.037041	-0.027988	1.000000	-0.000263	0.000463	-0.000350	0.203079	-0.118103	0.972014	-0.164566	0.974462	0.152783	-0.965234	-0.190987	0.178456
10979		9.727570	1.491431	1.862457	-0.009218	0.041104	-0.041156	1.000000	-0.000115	0.000514	-0.000514	0.204388	-0.118895	0.971643	-0.163992	0.974409	0.153730	-0.965055	-0.190762	0.179660
10980		9.660393	1.460205	1.836637	0.002450	0.044832	-0.052980	1.000000	0.000031	0.000560	-0.000662	0.205678	-0.119960	0.971239	-0.163719	0.974254	0.155003	-0.964828	-0.190891	0.180743
10981		9.687679	1.494738	1.821681	-0.018971	0.046084	-0.068299	0.999999	-0.000237	0.000576	-0.000854	0.207147	-0.121438	0.970744	-0.162746	0.974162	0.156594	-0.964678	-0.190423	0.182031
10982		9.733668	1.443572	1.785513	-0.040495	0.049755	-0.072448	0.999999	-0.000506	0.000622	-0.000906	0.208781	-0.122933	0.970205	-0.161328	0.974147	0.158149	-0.964564	-0.189539	0.183551
10983		9.771774	1.361692	1.734872	-0.030582	0.052096	-0.067507	0.999999	-0.000382	0.000651	-0.000844	0.210439	-0.124154	0.969691	-0.160413	0.974073	0.159528	-0.964356	-0.189122	0.185066
10984		9.742575	1.325172	1.706902	0.010358	0.050189	-0.052809	1.000000	0.000129	0.000627	-0.000660	0.212169	-0.125061	0.969198	-0.160427	0.973865	0.160783	-0.963975	-0.189599	0.186561
10985		9.668688	1.365442	1.751979	0.030210	0.033483	-0.037278	1.000000	0.000378	0.000419	-0.000466	0.213274	-0.125590	0.968887	-0.161172	0.973593	0.161677	-0.963607	-0.190639	0.187401
10986		9.599316	1.438253	1.847601	-0.001357	0.013263	-0.020310	1.000000	-0.000017	0.000166	-0.000254	0.213793	-0.126118	0.968704	-0.160727	0.973576	0.162225	-0.963566	-0.190379	0.187873
10987		9.593618	1.420409	1.843069	-0.051353	0.000206	-0.008385	1.000000	-0.000642	0.000003	-0.000105	0.213998	-0.126368	0.968626	-0.159228	0.973822	0.162224	-0.963769	-0.188948	0.188275
10988		9.591085	1.389798	1.778381	-0.059512	-0.006347	0.006839	1.000000	-0.000744	-0.000079	0.000085	0.213986	-0.126164	0.968655	-0.157787	0.974138	0.161735	-0.964009	-0.187451	0.188545
10989		9.643469	1.435935	1.785332	-0.036596	-0.014895	0.018217	1.000000	-0.000457	-0.000186	0.000228	0.213738	-0.125826	0.968754	-0.156800	0.974394	0.161154	-0.964225	-0.186345	0.188536
10990		9.622235	1.489561	1.828572	-0.027472	-0.017458	0.026981	1.000000	-0.000343	-0.000218	0.000337	0.213328	-0.125230	0.968921	-0.156186	0.974624	0.160355	-0.964415	-0.185540	0.188356
10991		9.631622	1.471150	1.825401	-0.010791	-0.016712	0.023361	1.000000	-0.000135	-0.000209	0.000292	0.212848	-0.124721	0.969093	-0.155982	0.974763	0.159710	-0.964555	-0.185155	0.188022
10992		9.678106	1.530577	1.838946	-0.002770	-0.016150	0.009372	1.000000	-0.000035	-0.000202	0.000117	0.212536	-0.124670	0.969168	-0.155690	0.974837	0.159541	-0.964670	-0.184798	0.187778
10993		9.669447	1.515421	1.867884	-0.010271	-0.014354	-0.002479	1.000000	-0.000128	-0.000179	-0.000031	0.212271	-0.124745	0.969216	-0.155408	0.974887	0.159511	-0.964774	-0.184484	0.187554
10994		9.617628	1.532748	1.909843	-0.003481	-0.009942	-0.012272	1.000000	-0.000044	-0.000124	-0.000153	0.212203	-0.125144	0.969179	-0.155070	0.974888	0.159834	-0.964844	-0.184208	0.187468
10995		9.632117	1.520910	1.887929	0.009019	-0.004484	-0.016805	1.000000	0.000113	-0.000056	-0.000210	0.212265	-0.125485	0.969122	-0.155230	0.974799	0.160220	-0.964804	-0.184446	0.187437
10996		9.680610	1.559114	1.906901	-0.006917	-0.002904	-0.024228	1.000000	-0.000086	-0.000036	-0.000303	0.212419	-0.125965	0.969026	-0.155022	0.974754	0.160692	-0.964804	-0.184355	0.187529
10997		9.716294	1.573383	1.950673	-0.028248	-0.003690	-0.029019	1.000000	-0.000353	-0.000046	-0.000363	0.212577	-0.126746	0.968889	-0.154002	0.974814	0.161310	-0.964932	-0.183502	0.187704
10998		9.703696	1.514148	1.969189	-0.022884	-0.001884	-0.033788	1.000000	-0.000286	-0.000024	-0.000422	0.212816	-0.127493	0.968739	-0.153301	0.974815	0.161970	-0.964991	-0.182978	0.187911
10999		9.614190	1.521397	1.991722	-0.019112	0.005699	-0.039232	1.000000	-0.000239	0.000071	-0.000490	0.213338	-0.128322	0.968514	-0.152670	0.974779	0.162781	-0.964976	-0.182591	0.188367
11000		9.544993	1.534664	1.924030	-0.011464	0.016673	-0.047270	1.000000	-0.000143	0.000208	-0.000591	0.214011	-0.129390	0.968224	-0.152054	0.974694	0.163864	-0.964924	-0.182291	0.188921
11001		9.632520	1.638995	1.936930	-0.021773	0.014838	-0.043513	1.000000	-0.000272	0.000185	-0.000544	0.214681	-0.130362	0.967945	-0.151233	0.974662	0.164809	-0.964905	-0.181766	0.189527
11002		9.700056	1.585465	1.958672	-0.033988	0.013780	-0.029251	1.000000	-0.000425	0.000172	-0.000366	0.215246	-0.130982	0.967736	-0.150219	0.974729	0.165340	-0.964937	-0.180961	0.190131
11003		9.689460	1.558324	1.937696	-0.010440	0.014889	-0.015894	1.000000	-0.000131	0.000186	-0.000199	0.215783	-0.131252	0.967580	-0.149868	0.974731	0.165645	-0.964872	-0.180752	0.190660
11004		9.650130	1.626855	1.929329	-0.003846	0.010655	-0.010383	1.000000	-0.000048	0.000133	-0.000130	0.216379	-0.131404	0.967426	-0.149694	0.974719	0.165876	-0.964765	-0.180710	0.191239
11005		9.630784	1.583662	1.938929	-0.022314	0.006879	-0.016059	1.000000	-0.000279	0.000086	-0.000201	0.216770	-0.131708	0.967297	-0.149065	0.974772	0.166131	-0.964775	-0.180202	0.191668
11006		9.681367	1.605470	1.923386	-0.020206	0.008474	-0.022793	1.000000	-0.000253	0.000106	-0.000285	0.217278	-0.132189	0.967118	-0.148436	0.974790	0.166586	-0.964757	-0.179751	0.192179
11007		9.656163	1.594025	1.921194	-0.036638	0.007550	-0.028315	1.000000	-0.000458	0.000094	-0.000354	0.217677	-0.132908	0.966929	-0.147225	0.974878	0.167145	-0.964853	-0.178740	0.192642
11008		9.619131	1.551126	1.963069	-0.032704	0.005142	-0.033624	1.000000	-0.000409	0.000064	-0.000420	0.218081	-0.133737	0.966724	-0.146099	0.974930	0.167830	-0.964933	-0.177837	0.193074
11009		9.611455	1.620614	1.979535	-0.035679	0.001408	-0.035419	1.000000	-0.000446	0.000018	-0.000443	0.218395	-0.134522	0.966544	-0.145080	0.974970	0.168477	-0.965016	-0.177021	0.193412
11010		9.597911	1.617251	1.972910	-0.050694	-0.008857	-0.026163	1.000000	-0.000634	-0.000111	-0.000327	0.218445	-0.135306	0.966423	-0.143496	0.975121	0.168959	-0.965241	-0.175586	0.193595
11011		9.630724	1.608959	2.017964	-0.053475	-0.019208	-0.013265	1.000000	-0.000668	-0.000240	-0.000166	0.218191	-0.135697	0.966426	-0.142089	0.975316	0.169025	-0.965507	-0.174198	0.193524
11012		9.630599	1.564978	1.989097	-0.038326	-0.024482	0.003967	1.000000	-0.000479	-0.000306	0.000050	0.217771	-0.135720	0.966517	-0.141129	0.975498	0.168780	-0.965742	-0.173159	0.193281
11013		9.612230	1.599044	2.013382	-0.034981	-0.023891	0.004612	1.000000	-0.000437	-0.000299	0.000058	0.217324	-0.135655	0.966627	-0.140316	0.975668	0.168471	-0.965961	-0.172246	0.193002
11014		9.649624	1.595353	1.975871	-0.041370	-0.016297	0.005460	1.000000	-0.000517	-0.000204	0.000068	0.217112	-0.135509	0.966695	-0.139411	0.975861	0.168104	-0.966140	-0.171266	0.192980
11015		9.715428	1.569930	1.968029	-0.032072	-0.009430	0.003687	1.000000	-0.000401	-0.000118	0.000046	0.216994	-0.135559	0.966715	-0.138443	0.976028	0.167940	-0.966306	-0.170277	0.193025
11016		9.702217	1.599912	1.965517	-0.012204	-0.008511	0.006813	1.000000	-0.000153	-0.000106	0.000085	0.216869	-0.135385	0.966767	-0.138221	0.976101	0.167698	-0.966366	-0.169996	0.192973
11017		9.633963	1.592543	1.982992	-0.011494	-0.009492	0.005952	1.000000	-0.000144	-0.000119	0.000074	0.216830	-0.135218	0.966799	-0.137981	0.976173	0.167475	-0.966409	-0.169713	0.193006
11018		9.615586	1.594177	1.983444	-0.015509	-0.008695	0.005716	1.000000	-0.000194	-0.000109	0.000071	0.216716	-0.134960	0.966861	-0.137784	0.976255	0.167155	-0.966462	-0.169443	0.192975
11019		9.589922	1.615964	1.973055	-0.010735	-0.010021	0.005500	1.000000	-0.000134	-0.000125	0.000069	0.216571	-0.134726	0.966926	-0.137682	0.976318	0.166872	-0.966509	-0.169268	0.192893
11020		9.618087	1.648842	1.973845	-0.014798	-0.014202	0.009869	1.000000	-0.000185	-0.000178	0.000123	0.216339	-0.134572	0.966999	-0.137300	0.976418	0.166600	-0.966616	-0.168811	0.192760
11021		9.669377	1.637401	1.985411	-0.026335	-0.012915	0.013973	1.000000	-0.000329	-0.000161	0.000175	0.216151	-0.134260	0.967085	-0.136703	0.976582	0.166133	-0.966743	-0.168113	0.192735
11022		9.654340	1.580554	1.930416	-0.014069	-0.014685	0.010283	1.000000	-0.000176	-0.000184	0.000129	0.215948	-0.134077	0.967156	-0.136401	0.976672	0.165852	-0.966830	-0.167736	0.192622
11023		9.652129	1.585288	1.975646	0.005275	-0.020503	-0.000155	1.000000	0.000066	-0.000256	-0.000002	0.215674	-0.134074	0.967217	-0.136635	0.976640	0.165847	-0.966859	-0.167924	0.192317
11024		9.621495	1.606717	2.013252	-0.008531	-0.014859	-0.008734	1.000000	-0.000107	-0.000186	-0.000109	0.215463	-0.134405	0.967218	-0.136278	0.976651	0.166074	-0.966956	-0.167593	0.192116
11025		9.592112	1.596517	1.946545	-0.005848	-0.007680	-0.007954	1.000000	-0.000073	-0.000096	-0.000099	0.215399	-0.134532	0.967215	-0.136167	0.976651	0.166169	-0.966986	-0.167496	0.192051
11026		9.605285	1.656331	1.957686	-0.003632	-0.007956	-0.000683	1.000000	-0.000045	-0.000099	-0.000009	0.215305	-0.134482	0.967243	-0.136150	0.976665	0.166098	-0.967009	-0.167452	0.191971
11027		9.648970	1.609974	1.973963	-0.006496	-0.009653	0.003490	1.000000	-0.000081	-0.000121	0.000044	0.215283	-0.134430	0.967255	-0.136019	0.976697	0.166016	-0.967033	-0.167305	0.191981
11028		9.686229	1.617398	2.015548	-0.000806	-0.010700	0.001891	1.000000	-0.000010	-0.000134	0.000024	0.215187	-0.134331	0.967290	-0.136110	0.976701	0.165917	-0.967041	-0.167361	0.191890
11029		9.680147	1.629799	2.023006	-0.013694	-0.009894	-0.006057	1.000000	-0.000171	-0.000124	-0.000076	0.215076	-0.134462	0.967296	-0.135721	0.976749	0.165954	-0.967121	-0.166975	0.191826
11030		9.641176	1.563187	1.974160	-0.006957	0.000929	-0.011794	1.000000	-0.000087	0.000012	-0.000147	0.215355	-0.134744	0.967195	-0.135520	0.976727	0.166246	-0.967087	-0.166876	0.192083
11031		9.600387	1.606849	1.996842	0.010289	0.009290	-0.021096	1.000000	0.000129	0.000116	-0.000264	0.215796	-0.135155	0.967039	-0.135643	0.976622	0.166763	-0.966971	-0.167159	0.192418
11032		9.624518	1.637886	2.003503	0.005025	0.013351	-0.019237	1.000000	0.000063	0.000167	-0.000240	0.216212	-0.135594	0.966885	-0.135528	0.976554	0.167256	-0.966894	-0.167203	0.192766
11033		9.679298	1.629496	1.989893	0.010835	0.010390	-0.006834	1.000000	0.000135	0.000130	-0.000085	0.216629	-0.135678	0.966780	-0.135746	0.976489	0.167457	-0.966770	-0.167512	0.193119
11034		9.651861	1.645778	1.993875	0.003519	0.007058	-0.000134	1.000000	0.000044	0.000088	-0.000002	0.216963	-0.135607	0.966715	-0.135883	0.976468	0.167471	-0.966676	-0.167695	0.193430
11035		9.605692	1.623230	1.983487	-0.009316	0.003230	-0.004814	1.000000	-0.000116	0.000040	-0.000060	0.217296	-0.135653	0.966634	-0.135686	0.976484	0.167537	-0.966629	-0.167564	0.193780
11036		9.659538	1.561523	1.953409	-0.001658	0.003560	-0.010078	1.000000	-0.000021	0.000045	-0.000126	0.217604	-0.135791	0.966545	-0.135733	0.976442	0.167740	-0.966553	-0.167693	0.194046
11037		9.634103	1.639316	1.960735	0.009353	0.005112	-0.010823	1.000000	0.000117	0.000064	-0.000135	0.217893	-0.136066	0.966441	-0.135815	0.976372	0.168085	-0.966476	-0.167882	0.194265
11038		9.606975	1.599179	1.978896	-0.009030	0.003132	-0.014827	1.000000	-0.000113	0.000039	-0.000185	0.218261	-0.136344	0.966319	-0.135665	0.976338	0.168400	-0.966414	-0.167851	0.194600
11039		9.615415	1.591135	1.989591	-0.005898	0.003139	-0.008930	1.000000	-0.000074	0.000039	-0.000112	0.218504	-0.136483	0.966244	-0.135512	0.976333	0.168552	-0.966381	-0.167767	0.194838
11040		9.632791	1.629508	1.994257	0.001602	-0.000651	-0.001369	1.000000	0.000020	-0.000008	-0.000017	0.218619	-0.136453	0.966223	-0.135603	0.976319	0.168561	-0.966343	-0.167873	0.194938
11041		9.620985	1.628939	1.975472	-0.002475	-0.004209	0.006882	1.000000	-0.000031	-0.000053	0.000086	0.218586	-0.136199	0.966266	-0.135676	0.976352	0.168313	-0.966340	-0.167890	0.194938
11042		9.638256	1.646618	2.000345	-0.012618	-0.005392	0.007990	1.000000	-0.000158	-0.000067	0.000100	0.218692	-0.135944	0.966278	-0.135589	0.976408	0.168056	-0.966328	-0.167769	0.195101
11043		9.632431	1.614690	1.993060	-0.017724	-0.006772	0.005761	1.000000	-0.000222	-0.000085	0.000072	0.218682	-0.135842	0.966295	-0.135201	0.976493	0.167873	-0.966384	-0.167355	0.195176
11044		9.622118	1.614255	1.983341	-0.005993	-0.006781	0.001136	1.000000	-0.000075	-0.000085	0.000014	0.218677	-0.135745	0.966309	-0.135170	0.976516	0.167768	-0.966390	-0.167303	0.195193
11045		9.656198	1.678395	1.991387	-0.011410	-0.009735	0.001613	1.000000	-0.000143	-0.000122	0.000020	0.218558	-0.135730	0.966338	-0.134849	0.976577	0.167667	-0.966462	-0.166955	0.195136
11046		9.666475	1.674468	1.988438	-0.021825	-0.011458	0.008855	1.000000	-0.000273	-0.000143	0.000111	0.218371	-0.135514	0.966411	-0.134408	0.976696	0.167328	-0.966565	-0.166433	0.195068
11047		9.583673	1.655313	1.978525	-0.021887	-0.016984	0.011306	1.000000	-0.000274	-0.000212	0.000141	0.218044	-0.135270	0.966519	-0.133974	0.976823	0.166936	-0.966699	-0.165888	0.194867
11048		9.603943	1.582440	1.997848	-0.000613	-0.020717	0.001923	1.000000	-0.000008	-0.000259	0.000024	0.217591	-0.135322	0.966614	-0.133865	0.976846	0.166889	-0.966817	-0.165710	0.194438
11049		9.685912	1.638619	1.998437	0.002136	-0.009176	-0.005768	1.000000	0.000027	-0.000115	-0.000072	0.217580	-0.135522	0.966588	-0.133921	0.976802	0.167100	-0.966811	-0.165805	0.194384
11050		9.608320	1.638670	1.938736	0.012542	0.003868	-0.012703	1.000000	0.000157	0.000048	-0.000159	0.217899	-0.135733	0.966487	-0.134273	0.976696	0.167439	-0.966691	-0.166258	0.194596
11051		9.608224	1.676281	1.976104	0.013119	0.007695	-0.013361	1.000000	0.000164	0.000096	-0.000167	0.218225	-0.136017	0.966373	-0.134486	0.976600	0.167826	-0.966588	-0.166587	0.194826
11052		9.654181	1.653020	1.993132	0.005132	0.004658	-0.010545	1.000000	0.000064	0.000058	-0.000132	0.218532	-0.136224	0.966275	-0.134602	0.976535	0.168112	-0.966502	-0.166800	0.195069
11053		9.706948	1.642541	1.958001	0.025641	0.003751	-0.008284	1.000000	0.000321	0.000047	-0.000104	0.218870	-0.136358	0.966179	-0.135333	0.976375	0.168454	-0.966323	-0.167625	0.195246
11054		9.657399	1.695821	1.969581	0.020310	0.001155	-0.009130	1.000000	0.000254	0.000014	-0.000114	0.219106	-0.136587	0.966093	-0.135784	0.976249	0.168818	-0.966207	-0.168169	0.195356
11055		9.603776	1.629518	1.972507	0.004623	0.000060	-0.016372	1.000000	0.000058	0.000001	-0.000205	0.219238	-0.136945	0.966013	-0.135822	0.976176	0.169211	-0.966171	-0.168303	0.195415
11056		9.606385	1.653352	1.970330	0.004091	0.001172	-0.021177	1.000000	0.000051	0.000015	-0.000265	0.219505	-0.137448	0.965881	-0.135863	0.976073	0.169774	-0.966105	-0.168494	0.195579
11057		9.631684	1.650996	1.947428	0.011015	-0.001366	-0.015822	1.000000	0.000138	-0.000017	-0.000198	0.219752	-0.137838	0.965769	-0.136155	0.975945	0.170272	-0.966008	-0.168912	0.195699
11058		9.638141	1.667680	1.983379	0.025101	-0.005269	-0.007360	1.000000	0.000314	-0.000066	-0.000092	0.219745	-0.138035	0.965742	-0.136670	0.975821	0.170574	-0.965937	-0.169471	0.195566
11059		9.631796	1.681445	1.990665	0.008645	-0.008530	0.001641	1.000000	0.000108	-0.000107	0.000021	0.219819	-0.137909	0.965744	-0.137147	0.975757	0.170556	-0.965852	-0.169940	0.195576
11060		9.623951	1.633580	1.993127	0.001186	-0.014399	0.001093	1.000000	0.000015	-0.000180	0.000014	0.219555	-0.137987	0.965792	-0.137077	0.975764	0.170574	-0.965922	-0.169838	0.195319
11061		9.631938	1.655142	2.016314	-0.000559	-0.015146	0.000370	1.000000	-0.000007	-0.000189	0.000005	0.219415	-0.137931	0.965832	-0.137260	0.975746	0.170529	-0.965928	-0.169987	0.195161
11062		9.644348	1.671204	2.000007	-0.012989	-0.015344	-0.000156	1.000000	-0.000162	-0.000192	-0.000002	0.219231	-0.137955	0.965871	-0.137023	0.975789	0.170473	-0.966003	-0.169719	0.195020
11063		9.686874	1.599305	1.958415	0.003463	-0.010321	-0.000126	1.000000	0.000043	-0.000129	-0.000002	0.219097	-0.137978	0.965898	-0.137125	0.975771	0.170492	-0.966019	-0.169803	0.194868
11064		9.645059	1.662520	2.005336	0.011219	-0.007905	0.001443	1.000000	0.000140	-0.000099	0.000018	0.219059	-0.137942	0.965912	-0.137426	0.975726	0.170511	-0.965985	-0.170093	0.194785
11065		9.600126	1.664269	2.038576	-0.006582	-0.010567	0.002687	1.000000	-0.000082	-0.000132	0.000034	0.219041	-0.137809	0.965935	-0.137427	0.975749	0.170373	-0.965989	-0.170064	0.194790
11066		9.651170	1.638531	1.992500	-0.014791	-0.009119	0.007908	1.000000	-0.000185	-0.000114	0.000099	0.219075	-0.137533	0.965966	-0.137329	0.975814	0.170081	-0.965995	-0.169916	0.194890
11067		9.684950	1.641407	2.005384	0.003238	-0.009143	0.014173	1.000000	0.000040	-0.000114	0.000177	0.219001	-0.137181	0.966033	-0.137576	0.975835	0.169762	-0.965977	-0.170081	0.194836
11068		9.626902	1.640111	2.011373	-0.000170	-0.005204	0.008535	1.000000	-0.000002	-0.000065	0.000107	0.218969	-0.136973	0.966070	-0.137642	0.975861	0.169559	-0.965975	-0.170099	0.194830
11069		9.615612	1.622396	2.023711	-0.009303	-0.001311	0.000215	1.000000	-0.000116	-0.000016	0.000003	0.219132	-0.136897	0.966044	-0.137610	0.975875	0.169505	-0.965942	-0.170081	0.195007
11070		9.597413	1.642926	2.004666	-0.005796	0.000136	0.000792	1.000000	-0.000072	0.000002	0.000010	0.219210	-0.136895	0.966026	-0.137393	0.975911	0.169473	-0.965956	-0.169876	0.195121
11071		9.634380	1.674968	2.006580	0.001158	-0.001275	0.011296	1.000000	0.000014	-0.000016	0.000141	0.219436	-0.136552	0.966023	-0.137709	0.975908	0.169230	-0.965859	-0.170166	0.195345
11072		9.639350	1.707503	1.982711	-0.004941	-0.001539	0.020823	1.000000	-0.000062	-0.000019	0.000260	0.219306	-0.136020	0.966128	-0.137586	0.976027	0.168645	-0.965906	-0.169911	0.195334
11073		9.620586	1.646944	1.989686	-0.015620	-0.007273	0.017001	1.000000	-0.000195	-0.000091	0.000213	0.219264	-0.135542	0.966205	-0.137509	0.976125	0.168139	-0.965927	-0.169728	0.195390
11074		9.658644	1.618906	2.005596	-0.003343	-0.004582	0.006528	1.000000	-0.000042	-0.000057	0.000082	0.219358	-0.135340	0.966212	-0.137604	0.976141	0.167971	-0.965892	-0.169800	0.195501
11075		9.580783	1.648758	1.973691	0.013145	0.004865	-0.000203	1.000000	0.000164	0.000061	-0.000003	0.219599	-0.135294	0.966163	-0.137919	0.976086	0.168032	-0.965792	-0.170152	0.195688
11076		9.570313	1.751522	1.976744	0.010107	0.006346	-0.002260	1.000000	0.000126	0.000079	-0.000028	0.219910	-0.135278	0.966095	-0.138215	0.976027	0.168130	-0.965679	-0.170502	0.195940
11077		9.622932	1.703759	1.995203	-0.020024	0.005007	0.002310	1.000000	-0.000250	0.000063	0.000029	0.220278	-0.135098	0.966036	-0.137972	0.976090	0.167964	-0.965630	-0.170285	0.196371
11078		9.659387	1.643848	1.976813	-0.005088	-0.000253	0.002941	1.000000	-0.000064	-0.000003	0.000037	0.220434	-0.134951	0.966021	-0.138001	0.976106	0.167850	-0.965590	-0.170312	0.196543
11079		9.672891	1.711150	1.978283	0.005887	-0.004854	0.000743	1.000000	0.000074	-0.000061	0.000009	0.220471	-0.134927	0.966016	-0.138231	0.976068	0.167879	-0.965549	-0.170546	0.196544
11080		9.621071	1.668320	1.948471	-0.005353	-0.004307	-0.009013	1.000000	-0.000067	-0.000054	-0.000113	0.220563	-0.135114	0.965969	-0.138162	0.976045	0.168071	-0.965538	-0.170531	0.196612
11081		9.549168	1.680824	2.006402	-0.012908	-0.001596	-0.020848	1.000000	-0.000161	-0.000020	-0.000261	0.220759	-0.135602	0.965856	-0.137794	0.976019	0.168523	-0.965545	-0.170293	0.196780
11082		9.609193	1.650852	1.981478	-0.008961	-0.001623	-0.014137	1.000000	-0.000112	-0.000020	-0.000177	0.220815	-0.136012	0.965785	-0.137317	0.976029	0.168850	-0.965601	-0.169904	0.196846
11083		9.596429	1.686031	1.989058	0.020742	-0.005389	-0.000167	1.000000	0.000259	-0.000067	-0.000002	0.220877	-0.135972	0.965777	-0.137961	0.975921	0.168952	-0.965495	-0.170557	0.196800
11084		9.615857	1.765489	2.016540	0.000588	-0.011395	0.007926	1.000000	0.000007	-0.000142	0.000099	0.220764	-0.135776	0.965830	-0.138150	0.975925	0.168772	-0.965494	-0.170688	0.196692
11085		9.623606	1.683659	2.029818	-0.026579	-0.015849	0.008127	1.000000	-0.000332	-0.000198	0.000102	0.220586	-0.135588	0.965897	-0.137695	0.976044	0.168459	-0.965599	-0.170159	0.196632
11086		9.644419	1.654112	1.987082	-0.012092	-0.015139	-0.003261	1.000000	-0.000151	-0.000189	-0.000041	0.220472	-0.135609	0.965920	-0.137652	0.976051	0.168451	-0.965631	-0.170100	0.196525
11087		9.624825	1.666944	1.966077	-0.002266	-0.011623	-0.010582	1.000000	-0.000028	-0.000145	-0.000132	0.220429	-0.135850	0.965896	-0.137698	0.976002	0.168696	-0.965635	-0.170188	0.196432
11088		9.630415	1.681813	1.991835	-0.002270	-0.006548	-0.013443	1.000000	-0.000028	-0.000082	-0.000168	0.220485	-0.136154	0.965841	-0.137650	0.975956	0.169003	-0.965629	-0.170210	0.196442
11089		9.620594	1.686554	1.991935	-0.004303	-0.003255	-0.012172	1.000000	-0.000054	-0.000041	-0.000152	0.220648	-0.136412	0.965767	-0.137628	0.975910	0.169288	-0.965595	-0.170270	0.196558
11090		9.620820	1.672662	2.022315	-0.000174	-0.003146	-0.011137	1.000000	-0.000002	-0.000039	-0.000139	0.220775	-0.136641	0.965706	-0.137638	0.975864	0.169545	-0.965564	-0.170349	0.196639
11091		9.624324	1.702795	2.008791	-0.001860	-0.002858	-0.008435	1.000000	-0.000023	-0.000036	-0.000105	0.220905	-0.136805	0.965653	-0.137593	0.975839	0.169724	-0.965541	-0.170360	0.196745
11092		9.629359	1.691630	1.988628	-0.010579	-0.006050	-0.009893	1.000000	-0.000132	-0.000076	-0.000124	0.221054	-0.136980	0.965594	-0.137593	0.975804	0.169928	-0.965507	-0.170422	0.196858
11093		9.640128	1.651224	1.980058	0.002332	-0.002925	-0.010873	1.000000	0.000029	-0.000037	-0.000136	0.221213	-0.137160	0.965532	-0.137784	0.975733	0.170177	-0.965443	-0.170680	0.196946
11094		9.624033	1.677302	1.979407	0.003298	-0.002818	-0.015723	1.000000	0.000041	-0.000035	-0.000197	0.221354	-0.137492	0.965452	-0.137873	0.975654	0.170556	-0.965398	-0.170864	0.197009
11095		9.585433	1.688146	1.983266	-0.009347	-0.004281	-0.015710	1.000000	-0.000117	-0.000054	-0.000196	0.221517	-0.137835	0.965366	-0.137759	0.975609	0.170908	-0.965377	-0.170847	0.197126
11096		9.624785	1.683602	1.987180	-0.028063	-0.011732	-0.007184	1.000000	-0.000351	-0.000147	-0.000090	0.221437	-0.137995	0.965362	-0.137199	0.975682	0.170941	-0.965475	-0.170299	0.197119
11097		9.654177	1.635542	1.965243	-0.013901	-0.014516	0.006390	1.000000	-0.000174	-0.000181	0.000080	0.221252	-0.137828	0.965428	-0.137002	0.975752	0.170700	-0.965545	-0.170033	0.197005
11098		9.655703	1.641888	1.950754	0.007826	-0.017938	0.012114	1.000000	0.000098	-0.000224	0.000151	0.220966	-0.137528	0.965536	-0.137439	0.975737	0.170434	-0.965549	-0.170362	0.196703
11099		9.665803	1.678935	2.040399	0.007049	-0.018619	0.005677	1.000000	0.000088	-0.000233	0.000071	0.220727	-0.137371	0.965613	-0.137889	0.975693	0.170325	-0.965539	-0.170743	0.196420
11100		9.602375	1.625287	2.000699	-0.002613	-0.011274	0.004638	1.000000	-0.000033	-0.000141	0.000058	0.220681	-0.137208	0.965647	-0.138087	0.975688	0.170192	-0.965522	-0.170901	0.196369
11101		9.588024	1.665103	1.976673	0.017571	-0.009779	0.001513	1.000000	0.000220	-0.000122	0.000019	0.220717	-0.137074	0.965658	-0.138887	0.975568	0.170226	-0.965398	-0.171689	0.196287
11102		9.639206	1.707210	1.993305	-0.004574	-0.006950	0.009338	1.000000	-0.000057	-0.000087	0.000117	0.220682	-0.136858	0.965696	-0.138894	0.975606	0.170003	-0.965406	-0.171646	0.196290
11103		9.658400	1.642006	1.994715	0.017442	-0.003096	0.013363	1.000000	0.000218	-0.000039	0.000167	0.220776	-0.136441	0.965734	-0.139593	0.975552	0.169741	-0.965283	-0.172284	0.196332
11104		9.633510	1.697376	2.021220	0.022217	-0.004413	0.013117	1.000000	0.000278	-0.000055	0.000164	0.220862	-0.136032	0.965772	-0.140502	0.975459	0.169528	-0.965132	-0.173135	0.196329
11105		9.615097	1.657980	2.005813	0.023702	-0.000931	0.007195	1.000000	0.000296	-0.000012	0.000090	0.220946	-0.135824	0.965782	-0.141161	0.975374	0.169467	-0.965016	-0.173773	0.196332
11106		9.647718	1.731280	1.994228	0.022162	0.003983	-0.001647	1.000000	0.000277	0.000050	-0.000021	0.221339	-0.135705	0.965709	-0.142025	0.975226	0.169594	-0.964799	-0.174693	0.196582
11107		9.661475	1.699928	1.995368	-0.000531	0.001697	-0.001790	1.000000	-0.000007	0.000021	-0.000022	0.221594	-0.135667	0.965655	-0.142155	0.975201	0.169630	-0.964722	-0.174862	0.196813
11108		9.617014	1.677444	1.993595	0.004631	-0.001497	0.004557	1.000000	0.000058	-0.000019	0.000057	0.221670	-0.135514	0.965659	-0.142297	0.975200	0.169518	-0.964683	-0.174987	0.196890
11109		9.624904	1.697372	2.019542	0.003308	-0.003624	0.011708	1.000000	0.000041	-0.000045	0.000146	0.221770	-0.135153	0.965687	-0.142690	0.975189	0.169251	-0.964602	-0.175328	0.196983
11110		9.631035	1.690053	1.988852	-0.002173	-0.001327	0.012820	1.000000	-0.000027	-0.000017	0.000160	0.221881	-0.134775	0.965715	-0.142880	0.975217	0.168929	-0.964549	-0.175463	0.197125
11111		9.621708	1.680158	2.000655	-0.001959	-0.000112	0.011440	1.000000	-0.000024	-0.000001	0.000143	0.222070	-0.134397	0.965724	-0.143124	0.975233	0.168632	-0.964469	-0.175666	0.197334
11112		9.605084	1.665544	2.043765	-0.009502	-0.001352	0.007647	1.000000	-0.000119	-0.000017	0.000096	0.222261	-0.134157	0.965713	-0.143223	0.975250	0.168446	-0.964410	-0.175752	0.197546
11113		9.607581	1.681593	2.031702	-0.005674	-0.003450	0.007502	1.000000	-0.000071	-0.000043	0.000094	0.222219	-0.134020	0.965742	-0.142998	0.975317	0.168253	-0.964453	-0.175488	0.197570
11114		9.611821	1.706982	2.018599	-0.005275	-0.000299	0.010362	1.000000	-0.000066	-0.000004	0.000130	0.222324	-0.133715	0.965760	-0.142994	0.975367	0.167963	-0.964430	-0.175440	0.197727
11115		9.607385	1.684414	2.011775	-0.006306	0.003638	0.008927	1.000000	-0.000079	0.000045	0.000112	0.222537	-0.133434	0.965750	-0.142915	0.975424	0.167702	-0.964392	-0.175340	0.197998
11116		9.648979	1.693546	2.006693	-0.010640	0.007976	0.009428	1.000000	-0.000133	0.000100	0.000118	0.222877	-0.133108	0.965716	-0.142805	0.975489	0.167413	-0.964330	-0.175222	0.198406
11117		9.653631	1.669737	2.000223	-0.005641	0.007239	0.003921	1.000000	-0.000071	0.000090	0.000049	0.223317	-0.132869	0.965648	-0.143002	0.975481	0.167293	-0.964199	-0.175449	0.198841
11118		9.616324	1.668489	2.026814	0.003257	0.005437	0.001690	1.000000	0.000041	0.000068	0.000021	0.223528	-0.132807	0.965607	-0.142992	0.975487	0.167267	-0.964152	-0.175463	0.199059
11119		9.583322	1.671848	2.003062	-0.005283	0.008052	-0.005276	1.000000	-0.000066	0.000101	-0.000066	0.223897	-0.132829	0.965519	-0.142900	0.975488	0.167338	-0.964080	-0.175439	0.199427
11120		9.571778	1.673985	1.996905	-0.005885	0.009345	-0.006606	1.000000	-0.000074	0.000117	-0.000083	0.224322	-0.132901	0.965410	-0.142825	0.975476	0.167474	-0.963992	-0.175453	0.199839
11121		9.588190	1.694167	2.024793	-0.004651	0.007882	0.001214	1.000000	-0.000058	0.000099	0.000015	0.224741	-0.132751	0.965333	-0.142991	0.975459	0.167433	-0.963870	-0.175663	0.200243
11122		9.625742	1.701334	1.990594	-0.003213	0.003186	0.014400	1.000000	-0.000040	0.000040	0.000180	0.224862	-0.132363	0.965359	-0.142900	0.975539	0.167045	-0.963855	-0.175512	0.200447
11123		9.590426	1.681731	1.966966	-0.002225	-0.006950	0.013535	1.000000	-0.000028	-0.000087	0.000169	0.224835	-0.131971	0.965418	-0.143098	0.975571	0.166685	-0.963832	-0.175627	0.200458
11124		9.659491	1.683443	2.024469	-0.004197	-0.010121	0.007298	1.000000	-0.000052	-0.000127	0.000091	0.224625	-0.131853	0.965484	-0.142847	0.975644	0.166475	-0.963918	-0.175311	0.200319
11125		9.600863	1.667811	1.973056	-0.002164	-0.003848	-0.002712	1.000000	-0.000027	-0.000048	-0.000034	0.224694	-0.131919	0.965458	-0.142876	0.975625	0.166560	-0.963898	-0.175366	0.200369
11126		9.581982	1.682212	1.964041	0.016182	0.000996	-0.011105	1.000000	0.000202	0.000012	-0.000139	0.224956	-0.132147	0.965366	-0.143316	0.975497	0.166930	-0.963771	-0.175904	0.200505
11127		9.625826	1.715421	2.034414	0.002320	0.002189	-0.012871	1.000000	0.000029	0.000027	-0.000161	0.225213	-0.132395	0.965272	-0.143357	0.975439	0.167237	-0.963705	-0.176042	0.200702
11128		9.650436	1.651963	2.016952	0.005957	-0.000588	-0.009490	1.000000	0.000074	-0.000007	-0.000119	0.225415	-0.132542	0.965205	-0.143605	0.975362	0.167474	-0.963621	-0.176359	0.200828
11129		9.641714	1.690520	2.053084	0.016427	-0.008069	-0.009363	1.000000	0.000205	-0.000101	-0.000117	0.225428	-0.132740	0.965175	-0.144093	0.975237	0.167778	-0.963545	-0.176897	0.200719
11130		9.626795	1.657864	2.065426	0.002666	-0.011641	-0.010461	1.000000	0.000033	-0.000146	-0.000131	0.225266	-0.133041	0.965171	-0.143969	0.975213	0.168027	-0.963602	-0.176806	0.200529
11131		9.595907	1.673463	2.036408	0.001548	-0.008695	-0.014450	1.000000	0.000019	-0.000109	-0.000181	0.225223	-0.133418	0.965129	-0.143907	0.975160	0.168387	-0.963621	-0.176814	0.200428
11132		9.631448	1.642266	2.052367	-0.004970	-0.007535	-0.011907	1.000000	-0.000062	-0.000094	-0.000149	0.225304	-0.133642	0.965079	-0.143900	0.975120	0.168626	-0.963603	-0.176867	0.200468
11133		9.611135	1.647058	2.043104	0.007964	-0.008323	-0.004017	1.000000	0.000100	-0.000104	-0.000050	0.225171	-0.133779	0.965091	-0.143893	0.975101	0.168739	-0.963635	-0.176865	0.200315
11134		9.600100	1.672543	2.069420	0.005461	-0.012400	0.005484	1.000000	0.000068	-0.000155	0.000069	0.225042	-0.133635	0.965141	-0.144155	0.975082	0.168624	-0.963626	-0.177077	0.200170
11135		9.617735	1.674098	2.034090	-0.012188	-0.013700	0.008014	1.000000	-0.000152	-0.000171	0.000100	0.224777	-0.133495	0.965222	-0.143874	0.975167	0.168375	-0.963730	-0.176717	0.199989
11136		9.648283	1.658407	2.048227	-0.011158	-0.012562	0.006585	1.000000	-0.000139	-0.000157	0.000082	0.224620	-0.133354	0.965278	-0.143695	0.975229	0.168167	-0.963793	-0.176479	0.199894
11137		9.651466	1.649730	2.075765	-0.007514	-0.010891	0.003216	1.000000	-0.000094	-0.000136	0.000040	0.224444	-0.133301	0.965327	-0.143545	0.975271	0.168049	-0.963857	-0.176285	0.199759
11138		9.606818	1.643459	2.040867	-0.000482	-0.008630	0.000464	1.000000	-0.000006	-0.000108	0.000006	0.224370	-0.133282	0.965347	-0.143609	0.975265	0.168030	-0.963864	-0.176333	0.199680
11139		9.631240	1.668879	2.033599	0.002678	-0.004766	-0.003418	1.000000	0.000033	-0.000060	-0.000043	0.224471	-0.133317	0.965318	-0.143789	0.975223	0.168121	-0.963814	-0.176541	0.199740
11140		9.628292	1.700731	2.040272	-0.006275	-0.003418	-0.001587	1.000000	-0.000078	-0.000043	-0.000020	0.224533	-0.133332	0.965302	-0.143666	0.975241	0.168122	-0.963818	-0.176430	0.199819
11141		9.623101	1.662870	2.053461	-0.012564	-0.006162	0.001577	1.000000	-0.000157	-0.000077	0.000020	0.224676	-0.133208	0.965286	-0.143694	0.975253	0.168029	-0.963780	-0.176458	0.199975
11142		9.620850	1.659988	2.032894	-0.009655	-0.008499	0.003675	1.000000	-0.000121	-0.000106	0.000046	0.224594	-0.133131	0.965315	-0.143534	0.975298	0.167903	-0.963823	-0.176265	0.199937
11143		9.632624	1.666718	2.028813	-0.003025	-0.008758	0.001942	1.000000	-0.000038	-0.000109	0.000024	0.224609	-0.133037	0.965325	-0.143647	0.975293	0.167834	-0.963803	-0.176363	0.199949
11144		9.612659	1.668968	2.019939	-0.012730	-0.007555	-0.000514	1.000000	-0.000159	-0.000094	-0.000006	0.224594	-0.133033	0.965329	-0.143466	0.975328	0.167789	-0.963834	-0.176176	0.199967
11145		9.597976	1.633222	2.033948	-0.010735	-0.005683	-0.002915	1.000000	-0.000134	-0.000071	-0.000036	0.224662	-0.133049	0.965311	-0.143386	0.975337	0.167802	-0.963830	-0.176111	0.200044
11146		9.610036	1.658726	2.009098	-0.000872	-0.006119	-0.002249	1.000000	-0.000011	-0.000076	-0.000028	0.224595	-0.133128	0.965316	-0.143221	0.975356	0.167835	-0.963870	-0.175948	0.199993
11147		9.686625	1.685415	2.014031	0.000379	-0.007588	0.005568	1.000000	0.000005	-0.000095	0.000070	0.224651	-0.132924	0.965331	-0.143515	0.975336	0.167701	-0.963813	-0.176213	0.200034
11148		9.658761	1.689080	2.015868	-0.006399	-0.008139	0.008225	1.000000	-0.000080	-0.000102	0.000103	0.224563	-0.132728	0.965378	-0.143392	0.975395	0.167461	-0.963852	-0.176033	0.200006
11149		9.611969	1.579795	2.038896	0.008223	-0.016854	-0.000156	1.000000	0.000103	-0.000211	-0.000002	0.224263	-0.132789	0.965439	-0.143523	0.975370	0.167494	-0.963902	-0.176125	0.199682
11150		9.620177	1.644248	2.078177	0.012666	-0.010094	-0.004704	1.000000	0.000158	-0.000126	-0.000059	0.224245	-0.132871	0.965432	-0.143990	0.975271	0.167670	-0.963837	-0.176611	0.199567
11151		9.583064	1.671368	1.980288	0.016347	-0.001508	-0.000159	1.000000	0.000204	-0.000019	-0.000002	0.224388	-0.132823	0.965406	-0.144482	0.975185	0.167750	-0.963730	-0.177125	0.199629
11152		9.577523	1.708605	2.037038	0.006215	0.003639	0.005923	1.000000	0.000078	0.000045	0.000074	0.224536	-0.132647	0.965395	-0.144609	0.975187	0.167626	-0.963676	-0.177243	0.199783
11153		9.624537	1.638753	2.036889	0.004465	0.003523	0.009091	1.000000	0.000056	0.000044	0.000114	0.224609	-0.132424	0.965409	-0.144579	0.975229	0.167408	-0.963664	-0.177179	0.199899
11154		9.640021	1.682048	2.010748	0.021239	-0.001305	0.004287	1.000000	0.000265	-0.000016	0.000054	0.224707	-0.132288	0.965405	-0.145202	0.975135	0.167418	-0.963547	-0.177799	0.199911
11155		9.648784	1.729970	2.004050	0.011026	-0.003565	0.001175	1.000000	0.000138	-0.000045	0.000015	0.224879	-0.132178	0.965380	-0.145820	0.975034	0.167467	-0.963414	-0.178432	0.199990
11156		9.599737	1.697476	1.983586	0.003423	-0.000176	-0.005876	1.000000	0.000043	-0.000002	-0.000073	0.225090	-0.132235	0.965323	-0.146114	0.974963	0.167625	-0.963320	-0.178778	0.200133
11157		9.569226	1.695508	1.987784	0.006484	-0.002378	-0.009451	1.000000	0.000081	-0.000030	-0.000118	0.225324	-0.132382	0.965248	-0.146465	0.974864	0.167891	-0.963212	-0.179205	0.200271
11158		9.588939	1.677469	2.014963	0.010665	-0.006894	-0.005156	1.000000	0.000133	-0.000086	-0.000064	0.225307	-0.132506	0.965235	-0.146697	0.974800	0.168061	-0.963181	-0.179462	0.200191
11159		9.643911	1.748835	2.017656	0.006769	-0.014761	0.004205	1.000000	0.000085	-0.000185	0.000053	0.225127	-0.132404	0.965291	-0.147028	0.974762	0.167993	-0.963172	-0.179745	0.199978
11160		9.607283	1.721280	1.991523	-0.014214	-0.021267	0.009436	1.000000	-0.000178	-0.000266	0.000118	0.224809	-0.132193	0.965394	-0.146981	0.974818	0.167711	-0.963254	-0.179597	0.199718
11161		9.606402	1.691880	2.009277	-0.019563	-0.024537	0.003877	1.000000	-0.000245	-0.000307	0.000048	0.224347	-0.132179	0.965504	-0.146509	0.974923	0.167511	-0.963433	-0.179035	0.199356
11162		9.621397	1.691310	2.031953	-0.011709	-0.022401	0.000189	1.000000	-0.000146	-0.000280	0.000002	0.223936	-0.132264	0.965587	-0.146218	0.974976	0.167460	-0.963573	-0.178687	0.198993
11163		9.636437	1.700580	2.044240	-0.003673	-0.018915	-0.002277	1.000000	-0.000046	-0.000236	-0.000028	0.223620	-0.132380	0.965645	-0.146122	0.974983	0.167498	-0.963661	-0.178558	0.198682
11164		9.616684	1.704198	2.033195	-0.005480	-0.015035	-0.006262	1.000000	-0.000068	-0.000188	-0.000078	0.223452	-0.132569	0.965658	-0.145990	0.974981	0.167631	-0.963720	-0.178433	0.198507
11165		9.618256	1.697583	2.050426	-0.011051	-0.013725	-0.007682	1.000000	-0.000138	-0.000172	-0.000096	0.223346	-0.132757	0.965656	-0.145820	0.974983	0.167766	-0.963770	-0.178282	0.198400
11166		9.628046	1.697149	2.046720	0.002162	-0.008319	-0.005823	1.000000	0.000027	-0.000104	-0.000073	0.223338	-0.132875	0.965642	-0.145962	0.974936	0.167913	-0.963751	-0.178449	0.198345
11167		9.638140	1.746780	2.049150	0.000805	-0.005825	-0.001939	1.000000	0.000010	-0.000073	-0.000024	0.223404	-0.132888	0.965625	-0.146114	0.974904	0.167969	-0.963712	-0.178616	0.198381
11168		9.622187	1.719625	2.043277	-0.016106	-0.003159	-0.005683	1.000000	-0.000201	-0.000039	-0.000071	0.223520	-0.132991	0.965584	-0.145785	0.974943	0.168028	-0.963735	-0.178326	0.198531
11169		9.623046	1.671277	2.047278	-0.005924	-0.002106	-0.009487	1.000000	-0.000074	-0.000026	-0.000119	0.223697	-0.133165	0.965519	-0.145722	0.974919	0.168223	-0.963704	-0.178328	0.198681
11170		9.597847	1.674417	2.011199	0.002091	0.000802	-0.014974	1.000000	0.000026	0.000010	-0.000187	0.223965	-0.133471	0.965415	-0.145832	0.974836	0.168605	-0.963625	-0.178550	0.198865
11171		9.592900	1.717395	1.998950	-0.002533	0.002887	-0.016496	1.000000	-0.000032	0.000036	-0.000206	0.224258	-0.133826	0.965297	-0.145727	0.974784	0.168996	-0.963572	-0.178569	0.199101
11172		9.631565	1.704659	2.014865	-0.011555	-0.000581	-0.006562	1.000000	-0.000144	-0.000007	-0.000082	0.224457	-0.133929	0.965237	-0.145605	0.974782	0.169112	-0.963545	-0.178501	0.199296
11173		9.637938	1.692758	2.004978	-0.009706	-0.003924	-0.000435	1.000000	-0.000121	-0.000049	-0.000005	0.224487	-0.133942	0.965228	-0.145353	0.974825	0.169079	-0.963576	-0.178255	0.199367
11174		9.617390	1.645556	1.990922	-0.005645	-0.010681	-0.006471	1.000000	-0.000071	-0.000134	-0.000081	0.224488	-0.134051	0.965213	-0.145495	0.974780	0.169219	-0.963554	-0.178421	0.199323
11175		9.645327	1.699990	2.049287	-0.002933	-0.010585	-0.017103	1.000000	-0.000037	-0.000132	-0.000214	0.224450	-0.134487	0.965161	-0.145368	0.974728	0.169626	-0.963582	-0.178376	0.199227
11176		9.601495	1.674116	1.987499	-0.014461	-0.004126	-0.013139	1.000000	-0.000181	-0.000052	-0.000164	0.224611	-0.134757	0.965086	-0.145175	0.974711	0.169888	-0.963574	-0.178265	0.199367
11177		9.566518	1.702123	1.990245	-0.000706	0.000307	-0.003880	1.000000	-0.000009	0.000004	-0.000049	0.224806	-0.134788	0.965036	-0.145313	0.974674	0.169985	-0.963507	-0.178446	0.199526
11178		9.586408	1.681963	2.019068	-0.004799	0.001402	0.002005	1.000000	-0.000060	0.000018	0.000025	0.224919	-0.134744	0.965016	-0.145078	0.974722	0.169913	-0.963516	-0.178219	0.199685
11179		9.673033	1.700162	1.965300	0.005142	0.001383	0.002182	1.000000	0.000064	0.000017	0.000027	0.225145	-0.134622	0.964980	-0.145397	0.974677	0.169898	-0.963416	-0.178557	0.199870
11180		9.677469	1.744621	2.009594	0.008292	-0.005613	-0.001606	1.000000	0.000104	-0.000070	-0.000020	0.225179	-0.134639	0.964970	-0.145685	0.974619	0.169981	-0.963364	-0.178858	0.199848
11181		9.623488	1.683833	1.991723	-0.001566	-0.005945	-0.008729	1.000000	-0.000020	-0.000074	-0.000109	0.225230	-0.134841	0.964930	-0.145635	0.974591	0.170184	-0.963360	-0.178858	0.199869
11182		9.579279	1.723653	1.983664	0.000088	-0.006898	-0.016191	1.000000	0.000001	-0.000086	-0.000202	0.225373	-0.135176	0.964850	-0.145811	0.974494	0.170586	-0.963300	-0.179131	0.199914
11183		9.578954	1.727226	1.982125	-0.001511	-0.006208	-0.013939	1.000000	-0.000019	-0.000078	-0.000174	0.225502	-0.135461	0.964779	-0.146024	0.974400	0.170942	-0.963237	-0.179429	0.199949
11184		9.613503	1.736192	2.003955	0.009229	-0.010576	-0.003602	1.000000	0.000115	-0.000132	-0.000045	0.225332	-0.135608	0.964798	-0.146049	0.974375	0.171064	-0.963273	-0.179454	0.199753
11185		9.622067	1.766663	2.016489	0.006635	-0.015522	0.005959	1.000000	0.000083	-0.000194	0.000074	0.225105	-0.135494	0.964868	-0.146315	0.974353	0.170961	-0.963286	-0.179658	0.199507
11186		9.611993	1.757976	2.014378	0.001851	-0.020000	0.003474	1.000000	0.000023	-0.000250	0.000043	0.224754	-0.135479	0.964951	-0.146373	0.974357	0.170893	-0.963359	-0.179651	0.199160
11187		9.633425	1.755396	2.016722	-0.007991	-0.020469	-0.006245	1.000000	-0.000100	-0.000256	-0.000078	0.224407	-0.135711	0.964999	-0.146122	0.974374	0.171009	-0.963478	-0.179384	0.198826
11188		9.630882	1.746440	2.004212	-0.009693	-0.015689	-0.009406	1.000000	-0.000121	-0.000196	-0.000118	0.224222	-0.135974	0.965006	-0.145916	0.974372	0.171197	-0.963552	-0.179196	0.198635
11189		9.613521	1.743800	2.023647	-0.006443	-0.015906	-0.007886	1.000000	-0.000081	-0.000199	-0.000099	0.224143	-0.136146	0.965000	-0.146071	0.974315	0.171388	-0.963547	-0.179374	0.198499
11190		9.612298	1.735666	2.021440	-0.007827	-0.013999	-0.007012	1.000000	-0.000098	-0.000175	-0.000088	0.224053	-0.136308	0.964997	-0.146090	0.974285	0.171540	-0.963565	-0.179411	0.198379
11191		9.602971	1.729907	2.030608	-0.010971	-0.012840	-0.006844	1.000000	-0.000137	-0.000160	-0.000086	0.223984	-0.136457	0.964992	-0.146006	0.974277	0.171660	-0.963594	-0.179344	0.198299
11192		9.636830	1.754158	2.020985	-0.010040	-0.011973	-0.005213	1.000000	-0.000126	-0.000150	-0.000065	0.223853	-0.136611	0.965001	-0.145791	0.974294	0.171746	-0.963657	-0.179134	0.198182
11193		9.633863	1.735760	2.020908	-0.012296	-0.010484	-0.005559	1.000000	-0.000154	-0.000131	-0.000069	0.223843	-0.136733	0.964986	-0.145624	0.974303	0.171833	-0.963685	-0.178988	0.198179
11194		9.621068	1.710652	2.033277	-0.015348	-0.009049	-0.008454	1.000000	-0.000192	-0.000113	-0.000106	0.223878	-0.136910	0.964953	-0.145422	0.974308	0.171976	-0.963707	-0.178827	0.198217
11195		9.601849	1.707160	2.045225	-0.013359	-0.007213	-0.011732	1.000000	-0.000167	-0.000090	-0.000147	0.223939	-0.137180	0.964901	-0.145139	0.974311	0.172203	-0.963736	-0.178607	0.198276
11196		9.619867	1.730699	1.999791	-0.010880	-0.006775	-0.007147	1.000000	-0.000136	-0.000085	-0.000089	0.223882	-0.137391	0.964884	-0.144748	0.974347	0.172325	-0.963807	-0.178245	0.198252
11197		9.637277	1.741080	2.034741	-0.021338	-0.008691	0.005880	1.000000	-0.000267	-0.000109	0.000073	0.223810	-0.137254	0.964920	-0.144306	0.974456	0.172082	-0.963890	-0.177757	0.198287
11198		9.633352	1.717742	2.026157	-0.023040	-0.008199	0.012938	1.000000	-0.000288	-0.000102	0.000162	0.223675	-0.136969	0.964992	-0.143775	0.974608	0.171660	-0.964001	-0.177138	0.198302
11199		9.588394	1.649056	1.997393	-0.020344	-0.012500	0.009906	1.000000	-0.000254	-0.000156	0.000124	0.223449	-0.136776	0.965071	-0.143292	0.974739	0.171323	-0.964125	-0.176569	0.198206
11200		9.616330	1.724349	2.014245	-0.001666	-0.010674	0.001067	1.000000	-0.000021	-0.000133	0.000013	0.223413	-0.136727	0.965087	-0.143488	0.974713	0.171307	-0.964105	-0.176750	0.198145
11201		9.621778	1.751642	2.009917	-0.028189	-0.004669	0.004452	1.000000	-0.000352	-0.000058	0.000056	0.223406	-0.136622	0.965103	-0.142850	0.974848	0.171069	-0.964201	-0.176083	0.198271
11202		9.573271	1.723823	1.980523	-0.022404	0.001201	0.010711	1.000000	-0.000280	0.000015	0.000134	0.223547	-0.136327	0.965112	-0.142457	0.974968	0.170716	-0.964226	-0.175651	0.198530
11203		9.600662	1.705054	1.978442	-0.004227	0.001129	0.015912	1.000000	-0.000053	0.000014	0.000199	0.223655	-0.135927	0.965144	-0.142401	0.975045	0.170320	-0.964210	-0.175530	0.198718
11204		9.669467	1.740564	1.984871	-0.001783	0.000161	0.009256	1.000000	-0.000022	0.000002	0.000116	0.223895	-0.135619	0.965131	-0.142685	0.975040	0.170112	-0.964112	-0.175797	0.198956
11205		9.652456	1.784266	2.013477	-0.018253	-0.004632	0.005465	1.000000	-0.000228	-0.000058	0.000068	0.223924	-0.135481	0.965144	-0.142312	0.975131	0.169900	-0.964160	-0.175396	0.199075
11206		9.585812	1.694193	2.010543	-0.016855	-0.006660	0.001979	1.000000	-0.000211	-0.000083	0.000025	0.223866	-0.135473	0.965159	-0.141811	0.975226	0.169779	-0.964248	-0.174878	0.199108
11207		9.559648	1.725939	1.991148	0.001713	-0.004872	0.001407	1.000000	0.000021	-0.000061	0.000018	0.223926	-0.135408	0.965154	-0.142013	0.975198	0.169766	-0.964204	-0.175079	0.199143
11208		9.571425	1.750786	1.966659	-0.003767	-0.002587	0.002571	1.000000	-0.000047	-0.000032	0.000032	0.224009	-0.135327	0.965146	-0.141982	0.975216	0.169693	-0.964189	-0.175046	0.199243
11209		9.622036	1.756899	2.026773	-0.000205	-0.005571	0.010714	1.000000	-0.000003	-0.000070	0.000134	0.224096	-0.135027	0.965168	-0.142243	0.975218	0.169459	-0.964131	-0.175263	0.199336
11210		9.618527	1.783782	2.023380	-0.006741	-0.009433	0.017898	1.000000	-0.000084	-0.000118	0.000224	0.224015	-0.134571	0.965250	-0.142395	0.975273	0.169015	-0.964127	-0.175309	0.199313
11211		9.602232	1.751538	2.006184	-0.010562	-0.013367	0.010098	1.000000	-0.000132	-0.000167	0.000126	0.223761	-0.134382	0.965336	-0.142138	0.975361	0.168725	-0.964224	-0.174965	0.199146
11212		9.633390	1.762911	1.988047	-0.006595	-0.010296	-0.000341	1.000000	-0.000082	-0.000129	-0.000004	0.223671	-0.134397	0.965354	-0.142059	0.975375	0.168707	-0.964256	-0.174872	0.199071
11213		9.604768	1.751548	2.011500	-0.002577	-0.006693	-0.008633	1.000000	-0.000032	-0.000084	-0.000108	0.223760	-0.134581	0.965308	-0.142156	0.975323	0.168929	-0.964222	-0.175024	0.199106
11214		9.587130	1.748664	2.032916	-0.004375	-0.007273	-0.005864	1.000000	-0.000055	-0.000091	-0.000073	0.223846	-0.134676	0.965275	-0.142315	0.975275	0.169074	-0.964178	-0.175220	0.199145
11215		9.585784	1.749109	2.021515	-0.000416	-0.008469	-0.005231	1.000000	-0.000005	-0.000106	-0.000065	0.223824	-0.134827	0.965259	-0.142289	0.975253	0.169217	-0.964187	-0.175221	0.199101
11216		9.617732	1.731711	1.986392	-0.001076	-0.007701	-0.008698	1.000000	-0.000013	-0.000096	-0.000109	0.223905	-0.135000	0.965216	-0.142461	0.975189	0.169442	-0.964143	-0.175444	0.199117
11217		9.626847	1.747145	2.032045	-0.011652	-0.006424	-0.011017	1.000000	-0.000146	-0.000080	-0.000138	0.224109	-0.135194	0.965141	-0.142511	0.975140	0.169686	-0.964088	-0.175571	0.199271
11218		9.615599	1.708364	2.006201	-0.009149	-0.006083	-0.008174	1.000000	-0.000114	-0.000076	-0.000102	0.224115	-0.135412	0.965109	-0.142216	0.975155	0.169847	-0.964130	-0.175320	0.199289
11219		9.618434	1.702803	2.034786	-0.000881	-0.006395	-0.008339	1.000000	-0.000011	-0.000080	-0.000104	0.224171	-0.135599	0.965070	-0.142300	0.975105	0.170063	-0.964105	-0.175453	0.199295
11220		9.607335	1.705593	2.025432	-0.005472	-0.003780	-0.007682	1.000000	-0.000068	-0.000047	-0.000096	0.224315	-0.135748	0.965016	-0.142311	0.975072	0.170243	-0.964070	-0.175520	0.199405
11221		9.592795	1.689063	2.018918	-0.008346	-0.000950	-0.008469	1.000000	-0.000104	-0.000012	-0.000106	0.224449	-0.135948	0.964956	-0.142070	0.975076	0.170419	-0.964074	-0.175342	0.199541
11222		9.591174	1.721844	2.036215	-0.006405	-0.003828	-0.001087	1.000000	-0.000080	-0.000048	-0.000014	0.224596	-0.135931	0.964925	-0.142136	0.975063	0.170442	-0.964030	-0.175431	0.199675
11223		9.667775	1.715392	2.013644	-0.002014	-0.006854	0.007859	1.000000	-0.000025	-0.000086	0.000098	0.224603	-0.135728	0.964952	-0.142250	0.975077	0.170262	-0.964012	-0.175506	0.199698
11224		9.606936	1.745120	2.028777	-0.003475	-0.010406	0.012915	1.000000	-0.000043	-0.000130	0.000161	0.224472	-0.135420	0.965025	-0.142332	0.975121	0.169944	-0.964030	-0.175502	0.199613
11225		9.561753	1.678503	1.998543	-0.002372	-0.014912	0.002166	1.000000	-0.000030	-0.000186	0.000027	0.224306	-0.135391	0.965068	-0.142400	0.975119	0.169898	-0.964059	-0.175535	0.199445
11226		9.613468	1.762756	2.030227	-0.012254	-0.014690	-0.002758	1.000000	-0.000153	-0.000184	-0.000034	0.224144	-0.135495	0.965091	-0.142154	0.975150	0.169923	-0.964132	-0.175279	0.199313
11227		9.585918	1.751971	1.983321	-0.010956	-0.010902	0.006541	1.000000	-0.000137	-0.000136	0.000082	0.223984	-0.135376	0.965145	-0.141915	0.975220	0.169724	-0.964205	-0.174984	0.199222
11228		9.588651	1.800305	1.996981	-0.011613	-0.009282	0.012171	1.000000	-0.000145	-0.000116	0.000152	0.223925	-0.135067	0.965202	-0.141879	0.975283	0.169393	-0.964224	-0.174873	0.199227
11229		9.622364	1.743363	2.014329	-0.021448	-0.008528	0.009400	1.000000	-0.000268	-0.000107	0.000117	0.223813	-0.134869	0.965255	-0.141396	0.975409	0.169073	-0.964321	-0.174324	0.199240
11230		9.637351	1.759873	2.018890	-0.010909	-0.011338	-0.003014	1.000000	-0.000136	-0.000142	-0.000038	0.223787	-0.134927	0.965253	-0.141344	0.975408	0.169116	-0.964335	-0.174279	0.199213
11231		9.642592	1.780460	2.024013	-0.010337	-0.013323	-0.007317	1.000000	-0.000129	-0.000167	-0.000091	0.223647	-0.135137	0.965257	-0.141125	0.975416	0.169257	-0.964399	-0.174076	0.199077
11232		9.587217	1.761063	2.012246	-0.006421	-0.009955	-0.011680	1.000000	-0.000080	-0.000124	-0.000146	0.223687	-0.135399	0.965210	-0.141141	0.975365	0.169533	-0.964387	-0.174153	0.199067
11233		9.587095	1.763518	2.010679	-0.015108	-0.007078	-0.013323	1.000000	-0.000189	-0.000088	-0.000167	0.223722	-0.135727	0.965156	-0.140792	0.975370	0.169799	-0.964430	-0.173874	0.199103
11234		9.593052	1.735980	2.020601	-0.018878	-0.009750	-0.012481	1.000000	-0.000236	-0.000122	-0.000156	0.223638	-0.136096	0.965124	-0.140134	0.975426	0.170020	-0.964546	-0.173269	0.199071
11235		9.610771	1.732746	2.006071	-0.009553	-0.013165	-0.002166	1.000000	-0.000119	-0.000165	-0.000027	0.223512	-0.136167	0.965143	-0.140034	0.975435	0.170048	-0.964590	-0.173161	0.198953
11236		9.608455	1.763728	2.010962	-0.000745	-0.015067	0.002030	1.000000	-0.000009	-0.000188	0.000025	0.223309	-0.136161	0.965191	-0.140115	0.975428	0.170023	-0.964625	-0.173205	0.198744
11237		9.621828	1.739049	1.987725	-0.010460	-0.013420	0.000092	1.000000	-0.000131	-0.000168	0.000001	0.223178	-0.136181	0.965218	-0.139998	0.975450	0.169995	-0.964672	-0.173068	0.198633
11238		9.634753	1.739378	2.003427	-0.011175	-0.008153	-0.010090	1.000000	-0.000140	-0.000102	-0.000126	0.223184	-0.136448	0.965179	-0.139698	0.975456	0.170204	-0.964714	-0.172820	0.198644
11239		9.636450	1.759888	1.990186	-0.003715	-0.008386	-0.010218	1.000000	-0.000046	-0.000105	-0.000128	0.223154	-0.136726	0.965147	-0.139553	0.975434	0.170450	-0.964742	-0.172726	0.198592
11240		9.599984	1.751410	2.024648	-0.009079	-0.010268	-0.004502	1.000000	-0.000113	-0.000128	-0.000056	0.223072	-0.136866	0.965146	-0.139377	0.975443	0.170541	-0.964786	-0.172562	0.198518
11241		9.605190	1.738777	2.002668	-0.012036	-0.012902	-0.001113	1.000000	-0.000150	-0.000161	-0.000014	0.222858	-0.136984	0.965179	-0.138909	0.975513	0.170525	-0.964903	-0.172075	0.198372
11242		9.610645	1.749015	2.018265	-0.012189	-0.013604	0.002409	1.000000	-0.000152	-0.000170	0.000030	0.222691	-0.136971	0.965219	-0.138655	0.975566	0.170429	-0.964978	-0.171786	0.198258
11243		9.641691	1.760558	1.999838	-0.012069	-0.012596	0.005836	1.000000	-0.000151	-0.000157	0.000073	0.222647	-0.136819	0.965251	-0.138660	0.975593	0.170268	-0.964988	-0.171751	0.198242
11244		9.629659	1.732657	2.011309	-0.011994	-0.012301	0.002773	1.000000	-0.000150	-0.000154	0.000035	0.222567	-0.136755	0.965278	-0.138579	0.975621	0.170173	-0.965018	-0.171642	0.198190
11245		9.614318	1.713106	1.993327	-0.009792	-0.009181	-0.001014	1.000000	-0.000122	-0.000115	-0.000013	0.222522	-0.136796	0.965283	-0.138408	0.975646	0.170171	-0.965053	-0.171470	0.198169
11246		9.608443	1.734427	1.990803	-0.003204	-0.009936	-0.004974	1.000000	-0.000040	-0.000124	-0.000062	0.222453	-0.136941	0.965278	-0.138392	0.975625	0.170302	-0.965071	-0.171472	0.198080
11247		9.605871	1.765670	1.996796	-0.004874	-0.009445	0.002965	1.000000	-0.000061	-0.000118	0.000037	0.222317	-0.136933	0.965311	-0.138175	0.975670	0.170225	-0.965134	-0.171226	0.197987
11248		9.655906	1.755002	1.996794	-0.013271	-0.014303	0.014272	1.000000	-0.000166	-0.000179	0.000178	0.222098	-0.136614	0.965406	-0.138055	0.975754	0.169838	-0.965201	-0.171000	0.197853
11249		9.593960	1.740508	1.984987	-0.014524	-0.016643	0.017952	1.000000	-0.000182	-0.000208	0.000224	0.221815	-0.136221	0.965527	-0.137895	0.975860	0.169358	-0.965289	-0.170708	0.197676
11250		9.636366	1.698570	1.967192	-0.005663	-0.019154	0.008228	1.000000	-0.000071	-0.000239	0.000103	0.221536	-0.136051	0.965615	-0.138010	0.975878	0.169160	-0.965337	-0.170739	0.197416
11251		9.645676	1.741889	2.028174	-0.004962	-0.015100	0.002779	1.000000	-0.000062	-0.000189	0.000035	0.221379	-0.135994	0.965659	-0.138127	0.975872	0.169098	-0.965356	-0.170818	0.197253
11252		9.557365	1.723781	1.992124	0.008427	-0.004704	-0.000900	1.000000	0.000105	-0.000059	-0.000011	0.221466	-0.136014	0.965636	-0.138399	0.975818	0.169190	-0.965297	-0.171113	0.197287
11253		9.567656	1.804692	2.023417	-0.005428	-0.002409	0.003578	1.000000	-0.000068	-0.000030	0.000045	0.221642	-0.135868	0.965616	-0.138586	0.975805	0.169112	-0.965230	-0.171304	0.197450
11254		9.618071	1.703288	2.012280	-0.016206	-0.001644	0.009185	1.000000	-0.000203	-0.000021	0.000115	0.221741	-0.135634	0.965626	-0.138313	0.975891	0.168838	-0.965246	-0.170997	0.197635
11255		9.671027	1.720789	2.001506	0.011691	-0.004562	0.009274	1.000000	0.000146	-0.000057	0.000116	0.221710	-0.135451	0.965659	-0.138530	0.975886	0.168692	-0.965222	-0.171173	0.197600
11256		9.649876	1.771746	1.989607	-0.002363	-0.009112	0.005798	1.000000	-0.000030	-0.000114	0.000072	0.221713	-0.135282	0.965682	-0.138795	0.975868	0.168576	-0.965184	-0.171407	0.197586
11257		9.610442	1.717860	1.988402	-0.006941	-0.006721	0.001274	1.000000	-0.000087	-0.000084	0.000016	0.221741	-0.135251	0.965680	-0.138760	0.975879	0.168542	-0.965182	-0.171370	0.197625
11258		9.620554	1.757297	2.002544	-0.014543	-0.007562	-0.003741	1.000000	-0.000182	-0.000095	-0.000047	0.221707	-0.135374	0.965671	-0.138388	0.975924	0.168584	-0.965243	-0.171013	0.197635
11259		9.607826	1.698023	1.987582	-0.008117	-0.008729	0.002758	1.000000	-0.000101	-0.000109	0.000034	0.221604	-0.135364	0.965696	-0.138121	0.975976	0.168501	-0.965305	-0.170724	0.197584
11260		9.607329	1.736937	1.992671	-0.001903	-0.011126	0.010630	1.000000	-0.000024	-0.000139	0.000133	0.221543	-0.135093	0.965748	-0.138390	0.975978	0.168271	-0.965281	-0.170929	0.197525
11261		9.616827	1.754171	2.016498	-0.017307	-0.018127	0.018249	1.000000	-0.000216	-0.000227	0.000228	0.221234	-0.134686	0.965875	-0.138256	0.976082	0.167777	-0.965371	-0.170656	0.197322
11262		9.619701	1.698992	2.016503	-0.024587	-0.016584	0.018769	1.000000	-0.000307	-0.000207	0.000235	0.220966	-0.134264	0.965995	-0.137915	0.976224	0.167233	-0.965481	-0.170178	0.197195
11263		9.640155	1.708397	1.989868	-0.015443	-0.011989	0.013056	1.000000	-0.000193	-0.000150	0.000163	0.220763	-0.134014	0.966076	-0.137550	0.976337	0.166870	-0.965579	-0.169723	0.197106
11264		9.646185	1.742489	1.974762	-0.014740	-0.007820	0.010216	1.000000	-0.000184	-0.000098	0.000128	0.220644	-0.133818	0.966131	-0.137193	0.976437	0.166577	-0.965657	-0.169300	0.197086
11265		9.616776	1.717144	2.000234	-0.012679	-0.005335	0.011687	1.000000	-0.000158	-0.000067	0.000146	0.220655	-0.133537	0.966167	-0.137023	0.976515	0.166261	-0.965679	-0.169074	0.197175
11266		9.609751	1.724859	2.000135	-0.020307	-0.005944	0.011894	1.000000	-0.000254	-0.000074	0.000149	0.220652	-0.133251	0.966208	-0.136704	0.976620	0.165906	-0.965725	-0.168692	0.197277
11267		9.628096	1.725003	1.976322	-0.019716	-0.007071	0.017549	1.000000	-0.000246	-0.000088	0.000219	0.220594	-0.132834	0.966278	-0.136396	0.976747	0.165412	-0.965782	-0.168285	0.197347
11268		9.635862	1.740324	1.992532	-0.018429	-0.009382	0.017105	1.000000	-0.000230	-0.000117	0.000214	0.220466	-0.132458	0.966359	-0.136036	0.976878	0.164936	-0.965862	-0.167823	0.197349
11269		9.613160	1.718910	1.986250	-0.027104	-0.011210	0.017014	1.000000	-0.000339	-0.000140	0.000213	0.220251	-0.132117	0.966455	-0.135396	0.977053	0.164422	-0.966001	-0.167068	0.197309
11270		9.594606	1.668186	1.981432	-0.017171	-0.007281	0.007346	1.000000	-0.000215	-0.000091	0.000092	0.220233	-0.131941	0.966483	-0.135160	0.977125	0.164193	-0.966038	-0.166790	0.197362
11271		9.595723	1.716491	1.987099	-0.009178	-0.004662	0.003980	1.000000	-0.000115	-0.000058	0.000050	0.220289	-0.131862	0.966481	-0.134952	0.977172	0.164080	-0.966054	-0.166574	0.197465
11272		9.581981	1.720334	2.018856	-0.015137	-0.000174	0.004722	1.000000	-0.000189	-0.000002	0.000059	0.220448	-0.131725	0.966463	-0.134730	0.977229	0.163924	-0.966049	-0.166348	0.197681
11273		9.626614	1.734115	1.961297	-0.022863	-0.000978	0.010606	1.000000	-0.000286	-0.000012	0.000133	0.220590	-0.131444	0.966469	-0.134363	0.977336	0.163589	-0.966068	-0.165944	0.197929
11274		9.603252	1.695852	1.977662	-0.013416	-0.004202	0.016925	1.000000	-0.000168	-0.000053	0.000212	0.220627	-0.131020	0.966518	-0.134261	0.977424	0.163146	-0.966073	-0.165760	0.198055
11275		9.653251	1.692718	1.967888	-0.001742	-0.009888	0.010104	1.000000	-0.000022	-0.000124	0.000126	0.220454	-0.130850	0.966581	-0.134155	0.977476	0.162923	-0.966128	-0.165588	0.197934
11276		9.632023	1.707961	1.998859	-0.008214	-0.003986	0.001263	1.000000	-0.000103	-0.000050	0.000016	0.220511	-0.130837	0.966569	-0.134005	0.977502	0.162889	-0.966135	-0.165444	0.198017
11277		9.547456	1.678237	1.945446	-0.003359	-0.000304	-0.004500	1.000000	-0.000042	-0.000004	-0.000056	0.220672	-0.130947	0.966518	-0.133956	0.977487	0.163017	-0.966105	-0.165444	0.198163
11278		9.559492	1.751619	1.998529	-0.004042	0.000630	-0.004480	1.000000	-0.000051	0.000008	-0.000056	0.220854	-0.131062	0.966461	-0.133832	0.977484	0.163140	-0.966081	-0.165374	0.198341
11279		9.633073	1.685529	1.970559	-0.008484	-0.000248	0.007231	1.000000	-0.000106	-0.000003	0.000090	0.220968	-0.130902	0.966456	-0.133629	0.977542	0.162956	-0.966083	-0.165155	0.198513
11280		9.624075	1.712996	1.940102	0.016344	-0.002177	0.004839	1.000000	0.000204	-0.000027	0.000060	0.221045	-0.130799	0.966453	-0.134075	0.977481	0.162956	-0.966004	-0.165598	0.198530
11281		9.602448	1.730175	1.971383	0.000121	-0.004526	-0.004184	1.000000	0.000002	-0.000057	-0.000052	0.221161	-0.130886	0.966414	-0.134227	0.977437	0.163096	-0.965956	-0.165790	0.198603
11282		9.602567	1.641654	1.956496	0.006781	-0.000351	-0.015337	1.000000	0.000085	-0.000004	-0.000192	0.221348	-0.131279	0.966318	-0.134279	0.977356	0.163536	-0.965906	-0.165955	0.198708
11283		9.602741	1.732146	1.920548	0.022051	0.000883	-0.014895	1.000000	0.000276	0.000011	-0.000186	0.221603	-0.131628	0.966212	-0.134807	0.977198	0.164043	-0.965774	-0.166605	0.198806
11284		9.592795	1.719573	1.941779	0.019447	-0.004194	-0.006213	1.000000	0.000243	-0.000052	-0.000078	0.221703	-0.131783	0.966168	-0.135344	0.977076	0.164328	-0.965676	-0.167197	0.198785
11285		9.564610	1.717251	1.954326	0.011545	-0.010959	0.002537	1.000000	0.000144	-0.000137	0.000032	0.221656	-0.131714	0.966188	-0.135900	0.976993	0.164364	-0.965609	-0.167737	0.198657
11286		9.584557	1.740080	1.915813	0.006884	-0.018723	0.004535	1.000000	0.000086	-0.000234	0.000057	0.221328	-0.131703	0.966265	-0.136061	0.976977	0.164328	-0.965661	-0.167842	0.198313
11287		9.626857	1.724725	1.934212	0.008784	-0.022483	0.001919	1.000000	0.000110	-0.000281	0.000024	0.220940	-0.131756	0.966347	-0.136298	0.976938	0.164362	-0.965717	-0.168025	0.197886
11288		9.639539	1.738700	1.985151	0.005418	-0.022862	-0.004315	1.000000	0.000068	-0.000286	-0.000054	0.220498	-0.132001	0.966414	-0.136275	0.976913	0.164527	-0.965821	-0.167976	0.197419
11289		9.605314	1.725312	1.966608	-0.003183	-0.024416	-0.008327	1.000000	-0.000040	-0.000305	-0.000104	0.220163	-0.132273	0.966453	-0.136328	0.976868	0.164755	-0.965890	-0.168027	0.197037
11290		9.596649	1.702399	1.993706	0.003331	-0.025483	-0.009259	1.000000	0.000042	-0.000319	-0.000116	0.219788	-0.132582	0.966496	-0.136499	0.976796	0.165036	-0.965951	-0.168198	0.196591
11291		9.601447	1.756232	2.013432	0.003681	-0.023291	-0.008071	1.000000	0.000046	-0.000291	-0.000101	0.219398	-0.132896	0.966542	-0.136517	0.976751	0.165288	-0.966037	-0.168213	0.196155
11292		9.621258	1.727208	2.036575	-0.000085	-0.020572	-0.003077	1.000000	-0.000001	-0.000257	-0.000038	0.219105	-0.133038	0.966589	-0.136626	0.976717	0.165402	-0.966088	-0.168301	0.195827
11293		9.642757	1.751471	2.006934	0.002135	-0.017164	0.000080	1.000000	0.000027	-0.000215	0.000001	0.218868	-0.133102	0.966634	-0.136751	0.976691	0.165450	-0.966124	-0.168400	0.195565
11294		9.705512	1.769150	1.990725	0.001381	-0.016571	0.002296	1.000000	0.000017	-0.000207	0.000029	0.218618	-0.133128	0.966687	-0.136785	0.976688	0.165440	-0.966176	-0.168396	0.195311
11295		9.653728	1.732108	2.019074	-0.003386	-0.010427	-0.007126	1.000000	-0.000042	-0.000130	-0.000089	0.218526	-0.133372	0.966674	-0.136606	0.976680	0.165633	-0.966222	-0.168249	0.195211
11296		9.596261	1.704159	2.009266	-0.003788	-0.008135	-0.015889	1.000000	-0.000047	-0.000102	-0.000199	0.218611	-0.133758	0.966601	-0.136601	0.976612	0.166037	-0.966204	-0.168336	0.195226
11297		9.584629	1.726804	1.979114	0.001557	-0.001161	-0.014447	1.000000	0.000019	-0.000015	-0.000181	0.218729	-0.134161	0.966519	-0.136467	0.976563	0.166438	-0.966196	-0.168303	0.195294
11298		9.644951	1.796467	1.963974	-0.011760	-0.000433	-0.004645	1.000000	-0.000147	-0.000005	-0.000058	0.218875	-0.134296	0.966467	-0.136146	0.976591	0.166536	-0.966208	-0.168031	0.195468
11299		9.642764	1.727282	1.969130	-0.017203	-0.002737	0.001567	1.000000	-0.000215	-0.000034	0.000020	0.218940	-0.134309	0.966450	-0.135623	0.976678	0.166454	-0.966267	-0.167516	0.195619
11300		9.639003	1.675418	1.942704	-0.009620	-0.007584	-0.004538	1.000000	-0.000120	-0.000095	-0.000057	0.218953	-0.134439	0.966429	-0.135500	0.976676	0.166563	-0.966281	-0.167421	0.195629
11301		9.671352	1.706207	1.983034	0.002866	-0.008369	-0.017751	1.000000	0.000036	-0.000105	-0.000222	0.218966	-0.134923	0.966359	-0.135462	0.976599	0.167047	-0.966283	-0.167483	0.195565
11302		9.572000	1.703887	1.940332	-0.001543	0.000245	-0.019028	1.000000	-0.000019	0.000003	-0.000238	0.219238	-0.135378	0.966234	-0.135404	0.976522	0.167542	-0.966230	-0.167563	0.195760
11303		9.547168	1.709451	1.915156	0.005854	0.004634	-0.012433	1.000000	0.000073	0.000058	-0.000155	0.219548	-0.135677	0.966121	-0.135487	0.976446	0.167916	-0.966148	-0.167762	0.195994
11304		9.613650	1.704201	1.964579	-0.003191	0.005892	-0.001272	1.000000	-0.000040	0.000074	-0.000016	0.219910	-0.135660	0.966041	-0.135556	0.976426	0.167977	-0.966056	-0.167893	0.196336
11305		9.665352	1.673850	1.948009	0.012585	0.000258	0.001970	1.000000	0.000157	0.000003	0.000025	0.219982	-0.135677	0.966023	-0.135678	0.976400	0.168031	-0.966022	-0.168032	0.196382
11306		9.671061	1.753079	1.950394	0.008672	-0.008139	0.000899	1.000000	0.000108	-0.000102	0.000011	0.219989	-0.135674	0.966022	-0.136005	0.976343	0.168095	-0.965975	-0.168363	0.196332
11307		9.622011	1.702174	1.950203	-0.008610	-0.011472	-0.001417	1.000000	-0.000108	-0.000143	-0.000018	0.219883	-0.135767	0.966033	-0.135811	0.976364	0.168132	-0.966026	-0.168167	0.196247
11308		9.560649	1.693194	1.949358	-0.007863	-0.012029	-0.002763	1.000000	-0.000098	-0.000150	-0.000035	0.219719	-0.135924	0.966048	-0.135500	0.976396	0.168199	-0.966107	-0.167856	0.196115
11309		9.550748	1.726037	1.966254	-0.012401	-0.013935	0.004664	1.000000	-0.000155	-0.000174	0.000058	0.219532	-0.135863	0.966099	-0.135321	0.976443	0.168068	-0.966175	-0.167630	0.195975
11310		9.608804	1.721080	1.942870	-0.004774	-0.017979	0.018538	1.000000	-0.000060	-0.000225	0.000232	0.219162	-0.135517	0.966231	-0.135256	0.976526	0.167640	-0.966268	-0.167429	0.195688
11311		9.657591	1.770988	1.976171	-0.006998	-0.021075	0.023206	1.000000	-0.000087	-0.000263	0.000290	0.218766	-0.135026	0.966390	-0.135314	0.976613	0.167086	-0.966349	-0.167319	0.195379
11312		9.626092	1.751671	1.968017	-0.011810	-0.024938	0.013763	1.000000	-0.000148	-0.000312	0.000172	0.218236	-0.134835	0.966536	-0.135008	0.976714	0.166739	-0.966512	-0.166878	0.194950
11313		9.625933	1.730915	1.974332	-0.007759	-0.021039	0.000637	1.000000	-0.000097	-0.000263	0.000008	0.217904	-0.134903	0.966602	-0.134884	0.976734	0.166725	-0.966604	-0.166709	0.194638
11314		9.618828	1.751573	1.960499	-0.006693	-0.014879	-0.006229	1.000000	-0.000084	-0.000186	-0.000078	0.217736	-0.135132	0.966608	-0.134688	0.976733	0.166887	-0.966670	-0.166527	0.194469
11315		9.611507	1.763774	1.958078	-0.000399	-0.012235	-0.002091	1.000000	-0.000005	-0.000153	-0.000026	0.217636	-0.135222	0.966618	-0.134776	0.976706	0.166978	-0.966680	-0.166617	0.194341
11316		9.594877	1.759749	1.978304	0.005441	-0.012363	-0.003028	1.000000	0.000068	-0.000155	-0.000038	0.217505	-0.135366	0.966627	-0.134897	0.976664	0.167126	-0.966692	-0.166746	0.194169
11317		9.627230	1.747699	2.000289	-0.004466	-0.011577	-0.005680	1.000000	-0.000056	-0.000145	-0.000071	0.217484	-0.135528	0.966609	-0.134903	0.976635	0.167286	-0.966696	-0.166780	0.194119
11318		9.635966	1.733211	1.947682	-0.004123	-0.009627	-0.010575	1.000000	-0.000052	-0.000120	-0.000132	0.217484	-0.135816	0.966569	-0.134858	0.976593	0.167568	-0.966703	-0.166793	0.194077
11319		9.631482	1.757348	1.955122	0.000505	-0.007033	-0.011517	1.000000	0.000006	-0.000088	-0.000144	0.217552	-0.136114	0.966511	-0.134937	0.976526	0.167897	-0.966676	-0.166944	0.194078
11320		9.616989	1.724287	1.968205	0.003875	-0.006894	-0.011381	1.000000	0.000048	-0.000086	-0.000142	0.217598	-0.136428	0.966457	-0.135009	0.976457	0.168237	-0.966656	-0.167089	0.194057
11321		9.609347	1.720031	1.987982	0.002853	-0.007913	-0.006463	1.000000	0.000036	-0.000099	-0.000081	0.217629	-0.136611	0.966424	-0.135148	0.976400	0.168456	-0.966630	-0.167271	0.194030
11322		9.636008	1.733379	1.950313	0.001674	-0.009890	-0.004105	1.000000	0.000021	-0.000124	-0.000051	0.217557	-0.136773	0.966417	-0.135156	0.976373	0.168608	-0.966645	-0.167299	0.193931
11323		9.622522	1.757063	1.959034	-0.010146	-0.010429	-0.000436	1.000000	-0.000127	-0.000130	-0.000005	0.217504	-0.136817	0.966423	-0.135026	0.976389	0.168617	-0.966675	-0.167167	0.193895
11324		9.672514	1.729339	1.979400	-0.021494	-0.013064	0.006324	1.000000	-0.000269	-0.000163	0.000079	0.217385	-0.136696	0.966467	-0.134677	0.976474	0.168404	-0.966750	-0.166770	0.193861
11325		9.637530	1.733976	1.992752	-0.011862	-0.015421	0.012536	1.000000	-0.000148	-0.000193	0.000157	0.217167	-0.136440	0.966552	-0.134587	0.976541	0.168090	-0.966812	-0.166589	0.193710
11326		9.669954	1.685945	1.986376	0.001520	-0.015548	0.006573	1.000000	0.000019	-0.000194	0.000082	0.216973	-0.136331	0.966611	-0.134797	0.976530	0.167988	-0.966826	-0.166745	0.193503
11327		9.649627	1.761109	2.012824	-0.002528	-0.004981	0.000420	1.000000	-0.000032	-0.000062	0.000005	0.216974	-0.136387	0.966603	-0.134621	0.976550	0.168009	-0.966850	-0.166579	0.193525
11328		9.568285	1.713843	2.000845	-0.004498	0.003094	0.002017	1.000000	-0.000056	0.000039	0.000025	0.217181	-0.136353	0.966561	-0.134491	0.976572	0.167985	-0.966822	-0.166477	0.193755
11329		9.571180	1.767269	1.958373	-0.002216	0.006702	0.010380	1.000000	-0.000028	0.000084	0.000130	0.217471	-0.136095	0.966532	-0.134446	0.976616	0.167766	-0.966763	-0.166431	0.194088
11330		9.650708	1.750376	1.966390	-0.008923	0.006764	0.018806	1.000000	-0.000112	0.000085	0.000235	0.217747	-0.135612	0.966538	-0.134397	0.976700	0.167315	-0.966708	-0.166332	0.194447
11331		9.673244	1.779508	1.941871	-0.007062	0.002942	0.014438	1.000000	-0.000088	0.000037	0.000180	0.217967	-0.135243	0.966540	-0.134409	0.976755	0.166983	-0.966656	-0.166308	0.194722
11332		9.662575	1.768437	1.945136	-0.013531	-0.000620	0.008618	1.000000	-0.000169	-0.000008	0.000108	0.218107	-0.135032	0.966538	-0.134220	0.976820	0.166756	-0.966651	-0.166099	0.194928
11333		9.601835	1.726265	1.929480	-0.019513	-0.001404	-0.003012	1.000000	-0.000244	-0.000018	-0.000038	0.218249	-0.135126	0.966493	-0.133734	0.976883	0.166778	-0.966686	-0.165652	0.195133
11334		9.562040	1.733025	1.927221	-0.001753	0.004410	-0.002628	1.000000	-0.000022	0.000055	-0.000033	0.218487	-0.135219	0.966426	-0.133577	0.976887	0.166881	-0.966654	-0.165554	0.195375
11335		9.595377	1.738572	1.941597	-0.004586	0.002585	-0.000131	1.000000	-0.000057	0.000032	-0.000002	0.218713	-0.135238	0.966372	-0.133420	0.976904	0.166908	-0.966625	-0.165438	0.195618
11336		9.636614	1.749669	1.933779	-0.005975	-0.000562	0.005337	1.000000	-0.000075	-0.000007	0.000067	0.218880	-0.135105	0.966353	-0.133400	0.976925	0.166799	-0.966590	-0.165420	0.195806
11337		9.643396	1.717562	1.943549	-0.000523	-0.007792	0.011229	1.000000	-0.000007	-0.000097	0.000140	0.218854	-0.134858	0.966393	-0.133583	0.976937	0.166582	-0.966570	-0.165551	0.195792
11338		9.608031	1.740997	1.936321	0.002175	-0.011622	0.008527	1.000000	0.000027	-0.000145	0.000107	0.218687	-0.134739	0.966448	-0.133613	0.976957	0.166438	-0.966604	-0.165528	0.195645
11339		9.633778	1.714867	1.931072	-0.007092	-0.007060	0.003511	1.000000	-0.000089	-0.000088	0.000044	0.218659	-0.134700	0.966460	-0.133496	0.976985	0.166371	-0.966627	-0.165397	0.195645
11340		9.621312	1.705591	1.922673	-0.000949	-0.005479	0.002471	1.000000	-0.000012	-0.000068	0.000031	0.218738	-0.134642	0.966450	-0.133660	0.976964	0.166359	-0.966586	-0.165565	0.195703
11341		9.606517	1.700519	1.953918	0.005373	-0.007677	0.005478	1.000000	0.000067	-0.000096	0.000068	0.218648	-0.134593	0.966477	-0.133691	0.976970	0.166300	-0.966602	-0.165571	0.195619
11342		9.610905	1.691195	1.981192	0.000591	-0.011057	0.008210	1.000000	0.000007	-0.000138	0.000103	0.218518	-0.134463	0.966524	-0.133760	0.976985	0.166160	-0.966622	-0.165591	0.195503
11343		9.613440	1.707722	1.966917	-0.000605	-0.013102	0.008830	1.000000	-0.000008	-0.000164	0.000110	0.218352	-0.134309	0.966584	-0.133866	0.976998	0.165996	-0.966645	-0.165638	0.195350
11344		9.612417	1.723070	1.933494	0.003214	-0.010401	0.008822	1.000000	0.000040	-0.000130	0.000110	0.218254	-0.134140	0.966629	-0.134063	0.976996	0.165849	-0.966640	-0.165786	0.195250
11345		9.637572	1.710021	1.967360	0.002312	-0.005902	0.010471	1.000000	0.000029	-0.000074	0.000131	0.218221	-0.133943	0.966664	-0.134117	0.977021	0.165655	-0.966640	-0.165796	0.195243
11346		9.630558	1.718947	1.966540	0.002238	-0.006313	0.010929	1.000000	0.000028	-0.000079	0.000137	0.218177	-0.133736	0.966702	-0.134175	0.977048	0.165450	-0.966641	-0.165805	0.195226
11347		9.648467	1.712379	1.951863	0.002832	-0.007724	0.009624	1.000000	0.000035	-0.000097	0.000120	0.218118	-0.133551	0.966741	-0.134308	0.977059	0.165280	-0.966636	-0.165892	0.195177
11348		9.611478	1.709002	1.966836	0.004387	-0.008457	0.005595	1.000000	0.000055	-0.000106	0.000070	0.218043	-0.133483	0.966768	-0.134394	0.977058	0.165214	-0.966641	-0.165952	0.195101
11349		9.574384	1.706102	1.981960	-0.000419	-0.007166	0.005104	1.000000	-0.000005	-0.000090	0.000064	0.218056	-0.133380	0.966779	-0.134504	0.977056	0.165136	-0.966623	-0.166044	0.195112
11350		9.611996	1.737218	1.981520	-0.011341	-0.007218	0.011746	1.000000	-0.000142	-0.000090	0.000147	0.218012	-0.133144	0.966821	-0.134301	0.977133	0.164848	-0.966661	-0.165784	0.195145
11351		9.649138	1.725105	1.963515	-0.000945	-0.009993	0.020936	1.000000	-0.000012	-0.000125	0.000262	0.217823	-0.132717	0.966923	-0.134294	0.977212	0.164382	-0.966705	-0.165658	0.195037
11352		9.621322	1.675983	1.958860	-0.000831	-0.014169	0.014555	1.000000	-0.000010	-0.000177	0.000182	0.217581	-0.132448	0.967014	-0.134332	0.977258	0.164077	-0.966754	-0.165601	0.194841
11353		9.612207	1.699017	1.985554	0.003215	-0.015157	-0.001448	1.000000	0.000040	-0.000189	-0.000018	0.217388	-0.132560	0.967042	-0.134441	0.977226	0.164178	-0.966782	-0.165701	0.194616
11354		9.593477	1.730124	1.954754	-0.006396	-0.007803	-0.003041	1.000000	-0.000080	-0.000098	-0.000038	0.217386	-0.132680	0.967026	-0.134306	0.977229	0.164272	-0.966802	-0.165588	0.194616
11355		9.558408	1.723616	1.930688	0.004544	-0.002707	0.008403	1.000000	0.000057	-0.000034	0.000105	0.217491	-0.132488	0.967029	-0.134560	0.977215	0.164147	-0.966743	-0.165824	0.194708
11356		9.614820	1.742288	1.938277	0.010188	0.000819	0.011677	1.000000	0.000127	0.000010	0.000146	0.217625	-0.132226	0.967034	-0.134860	0.977204	0.163966	-0.966671	-0.166098	0.194832
11357		9.665802	1.750702	1.927810	0.002268	-0.001370	0.003767	1.000000	0.000028	-0.000017	0.000047	0.217696	-0.132197	0.967022	-0.134810	0.977216	0.163938	-0.966662	-0.166053	0.194915
11358		9.660212	1.753858	1.947252	-0.005213	-0.010625	-0.005650	1.000000	-0.000065	-0.000133	-0.000071	0.217627	-0.132401	0.967010	-0.134629	0.977214	0.164097	-0.966702	-0.165900	0.194844
11359		9.644215	1.719106	1.949762	-0.004118	-0.013959	-0.010410	1.000000	-0.000051	-0.000174	-0.000130	0.217498	-0.132731	0.966994	-0.134496	0.977185	0.164381	-0.966750	-0.165810	0.194684
11360		9.593412	1.729911	1.936271	0.007879	-0.007728	-0.012174	1.000000	0.000098	-0.000097	-0.000152	0.217529	-0.133084	0.966938	-0.134612	0.977104	0.164766	-0.966727	-0.166003	0.194634
11361		9.552061	1.712358	1.953798	-0.002259	-0.003385	-0.014035	1.000000	-0.000028	-0.000042	-0.000175	0.217631	-0.133481	0.966861	-0.134450	0.977061	0.165153	-0.966727	-0.165936	0.194692
11362		9.623301	1.704431	1.969647	0.005706	-0.005747	-0.011183	1.000000	0.000071	-0.000072	-0.000140	0.217720	-0.133785	0.966799	-0.134617	0.976978	0.165509	-0.966683	-0.166182	0.194698
11363		9.681151	1.727854	1.984933	0.011531	-0.010728	-0.002373	1.000000	0.000144	-0.000134	-0.000030	0.217660	-0.133896	0.966797	-0.134932	0.976906	0.165674	-0.966653	-0.166512	0.194567
11364		9.651277	1.751365	1.956239	-0.003319	-0.014119	-0.001325	1.000000	-0.000041	-0.000176	-0.000017	0.217530	-0.133982	0.966814	-0.134931	0.976895	0.165738	-0.966682	-0.166506	0.194426
11365		9.615117	1.700614	1.973377	-0.004547	-0.011563	-0.005667	1.000000	-0.000057	-0.000145	-0.000071	0.217481	-0.134162	0.966800	-0.134908	0.976870	0.165907	-0.966696	-0.166511	0.194351
11366		9.622688	1.709039	1.949638	0.004131	-0.005112	-0.009759	1.000000	0.000052	-0.000064	-0.000122	0.217588	-0.134430	0.966739	-0.135010	0.976803	0.166217	-0.966658	-0.166686	0.194391
11367		9.631423	1.732166	1.975079	0.004900	-0.005502	-0.006766	1.000000	0.000061	-0.000069	-0.000085	0.217639	-0.134651	0.966697	-0.135087	0.976750	0.166465	-0.966636	-0.166818	0.194389
11368		9.626493	1.704609	1.976229	-0.001221	-0.006944	-0.002230	1.000000	-0.000015	-0.000087	-0.000028	0.217634	-0.134766	0.966682	-0.135037	0.976739	0.166569	-0.966644	-0.166789	0.194373
11369		9.629229	1.682982	1.955291	-0.006862	-0.010409	-0.003756	1.000000	-0.000086	-0.000130	-0.000047	0.217552	-0.134933	0.966677	-0.134821	0.976750	0.166680	-0.966693	-0.166590	0.194302
11370		9.618410	1.675847	1.955844	-0.004011	-0.008487	-0.003656	1.000000	-0.000050	-0.000106	-0.000046	0.217570	-0.135051	0.966656	-0.134815	0.976730	0.166802	-0.966689	-0.166611	0.194300
11371		9.628745	1.733664	1.948789	-0.001885	-0.005944	-0.000466	1.000000	-0.000024	-0.000074	-0.000006	0.217550	-0.135142	0.966648	-0.134653	0.976743	0.166858	-0.966717	-0.166461	0.194293
11372		9.644411	1.727921	1.924922	-0.009642	-0.007165	0.005955	1.000000	-0.000121	-0.000090	0.000074	0.217512	-0.135057	0.966669	-0.134445	0.976795	0.166723	-0.966754	-0.166228	0.194307
11373		9.643834	1.689634	1.955586	-0.001541	-0.008767	0.006144	1.000000	-0.000019	-0.000110	0.000077	0.217436	-0.134973	0.966697	-0.134436	0.976813	0.166624	-0.966772	-0.166189	0.194249
11374		9.630647	1.720779	1.954082	-0.000888	-0.009800	0.003511	1.000000	-0.000011	-0.000122	0.000044	0.217328	-0.134968	0.966722	-0.134410	0.976821	0.166595	-0.966800	-0.166143	0.194150
11375		9.621743	1.721989	1.953663	-0.009248	-0.009629	-0.000516	1.000000	-0.000116	-0.000120	-0.000006	0.217258	-0.135049	0.966727	-0.134199	0.976846	0.166622	-0.966845	-0.165934	0.194104
11376		9.605238	1.725402	1.964694	-0.009296	-0.009908	0.003419	1.000000	-0.000116	-0.000124	0.000043	0.217163	-0.135034	0.966750	-0.133975	0.976890	0.166545	-0.966898	-0.165688	0.194053
11377		9.669545	1.750028	1.948743	-0.006873	-0.010504	0.016285	1.000000	-0.000086	-0.000131	0.000204	0.217044	-0.134680	0.966826	-0.133971	0.976955	0.166167	-0.966925	-0.165592	0.193999
11378		9.644297	1.760211	1.950468	-0.014216	-0.014057	0.019715	1.000000	-0.000178	-0.000176	0.000246	0.216796	-0.134283	0.966937	-0.133711	0.977075	0.165670	-0.967016	-0.165207	0.193871
11379		9.625153	1.650425	1.947834	-0.012748	-0.015115	0.006989	1.000000	-0.000159	-0.000189	0.000087	0.216621	-0.134164	0.966993	-0.133605	0.977118	0.165499	-0.967070	-0.165045	0.193739
11380		9.656212	1.727044	1.974191	0.008118	-0.010925	-0.004258	1.000000	0.000101	-0.000137	-0.000053	0.216538	-0.134339	0.966987	-0.133805	0.977057	0.165700	-0.967061	-0.165268	0.193594
11381		9.575385	1.740547	1.957539	0.001432	-0.001391	0.001227	1.000000	0.000018	-0.000017	0.000015	0.216671	-0.134340	0.966957	-0.133864	0.977042	0.165736	-0.967023	-0.165351	0.193713
11382		9.562222	1.748900	1.930135	0.002806	0.006255	0.010824	1.000000	0.000035	0.000078	0.000135	0.216954	-0.134076	0.966931	-0.133992	0.977057	0.165544	-0.966942	-0.165476	0.194011
11383		9.630816	1.706865	1.960588	-0.000482	0.006635	0.012858	1.000000	-0.000006	0.000083	0.000161	0.217268	-0.133737	0.966907	-0.134165	0.977077	0.165291	-0.966848	-0.165637	0.194345
11384		9.686739	1.743305	1.948242	0.005082	0.000233	0.006923	1.000000	0.000064	0.000003	0.000087	0.217426	-0.133584	0.966893	-0.134373	0.977062	0.165206	-0.966783	-0.165844	0.194488
11385		9.641415	1.770062	1.944766	-0.006994	-0.006291	0.000892	1.000000	-0.000087	-0.000079	0.000011	0.217412	-0.133633	0.966889	-0.134131	0.977096	0.165204	-0.966820	-0.165607	0.194508
11386		9.586682	1.699541	1.938308	-0.010714	-0.008294	-0.003476	1.000000	-0.000134	-0.000104	-0.000043	0.217344	-0.133807	0.966880	-0.133751	0.977133	0.165292	-0.966888	-0.165246	0.194477
11387		9.567492	1.730606	1.909228	-0.002281	-0.003361	-0.002273	1.000000	-0.000029	-0.000042	-0.000028	0.217442	-0.133897	0.966846	-0.133687	0.977126	0.165387	-0.966875	-0.165217	0.194567
11388		9.592049	1.737146	1.923103	-0.012159	-0.007021	0.003580	1.000000	-0.000152	-0.000088	0.000045	0.217417	-0.133873	0.966855	-0.133380	0.977183	0.165296	-0.966923	-0.164897	0.194600
11389		9.655242	1.716102	1.950171	-0.014807	-0.012495	0.013618	1.000000	-0.000185	-0.000156	0.000170	0.217228	-0.133627	0.966931	-0.133074	0.977283	0.164954	-0.967007	-0.164506	0.194510
11390		9.664046	1.710401	1.935674	-0.004797	-0.017482	0.009821	1.000000	-0.000060	-0.000219	0.000123	0.216949	-0.133482	0.967014	-0.133044	0.977321	0.164753	-0.967074	-0.164399	0.194270
11391		9.610106	1.738185	1.930736	-0.008239	-0.017867	0.002754	1.000000	-0.000103	-0.000223	0.000034	0.216667	-0.133518	0.967072	-0.132855	0.977355	0.164703	-0.967163	-0.164166	0.194022
11392		9.633457	1.735065	1.943185	-0.016686	-0.013390	-0.003154	1.000000	-0.000209	-0.000167	-0.000039	0.216512	-0.133677	0.967085	-0.132437	0.977403	0.164753	-0.967255	-0.163749	0.193916
11393		9.621481	1.699264	1.965447	-0.007461	-0.008824	0.001905	1.000000	-0.000093	-0.000110	0.000024	0.216424	-0.133718	0.967099	-0.132171	0.977444	0.164726	-0.967311	-0.163474	0.193868
11394		9.619776	1.720612	1.982389	0.002385	-0.010120	0.003203	1.000000	0.000030	-0.000126	0.000040	0.216353	-0.133699	0.967117	-0.132298	0.977427	0.164721	-0.967310	-0.163586	0.193781
11395		9.648424	1.723943	1.964281	-0.003521	-0.010201	-0.001900	1.000000	-0.000044	-0.000128	-0.000024	0.216250	-0.133840	0.967121	-0.132111	0.977438	0.164808	-0.967359	-0.163407	0.193690
11396		9.632145	1.710529	1.996191	-0.010076	-0.009253	-0.004364	1.000000	-0.000126	-0.000116	-0.000055	0.216210	-0.134014	0.967106	-0.131840	0.977455	0.164922	-0.967405	-0.163161	0.193667
11397		9.635634	1.738828	1.982568	-0.005133	-0.005181	0.000244	1.000000	-0.000064	-0.000065	0.000003	0.216251	-0.134057	0.967091	-0.131739	0.977464	0.164953	-0.967409	-0.163075	0.193717
11398		9.607430	1.752337	1.976967	-0.013722	-0.001620	0.004410	1.000000	-0.000172	-0.000020	0.000055	0.216397	-0.133965	0.967071	-0.131490	0.977517	0.164835	-0.967410	-0.162830	0.193917
11399		9.629064	1.707105	1.975759	-0.009739	0.001866	0.002597	1.000000	-0.000122	0.000023	0.000032	0.216583	-0.133936	0.967033	-0.131238	0.977559	0.164787	-0.967403	-0.162601	0.194145
11400		9.673737	1.719746	1.987398	-0.008280	0.005400	-0.004206	1.000000	-0.000103	0.000068	-0.000053	0.216903	-0.134038	0.966947	-0.131056	0.977563	0.164908	-0.967356	-0.162493	0.194470
11401		9.654773	1.693468	1.974451	-0.004586	0.007369	-0.012470	1.000000	-0.000057	0.000092	-0.000156	0.217300	-0.134339	0.966816	-0.130912	0.977525	0.165250	-0.967286	-0.162476	0.194829
11402		9.602852	1.705022	1.965973	0.003121	0.008246	-0.016716	1.000000	0.000039	0.000103	-0.000209	0.217707	-0.134750	0.966668	-0.130877	0.977448	0.165728	-0.967200	-0.162594	0.195161
11403		9.572907	1.741219	1.942110	0.000233	0.010840	-0.012618	1.000000	0.000003	0.000135	-0.000158	0.218223	-0.135013	0.966515	-0.130928	0.977380	0.166092	-0.967076	-0.162789	0.195610
11404		9.636605	1.711411	1.943892	-0.012622	0.009320	-0.003072	1.000000	-0.000158	0.000117	-0.000038	0.218619	-0.135083	0.966415	-0.130591	0.977413	0.166162	-0.967032	-0.162532	0.196040
11405		9.655573	1.693078	1.903021	-0.008945	0.001555	0.008191	1.000000	-0.000112	0.000019	0.000102	0.218756	-0.134936	0.966405	-0.130340	0.977476	0.165986	-0.967035	-0.162272	0.196241
11406		9.638817	1.704115	1.905474	-0.018191	-0.007747	0.004612	1.000000	-0.000227	-0.000097	0.000058	0.218707	-0.134892	0.966422	-0.129922	0.977555	0.165848	-0.967103	-0.161832	0.196272
11407		9.658797	1.672245	1.931357	-0.008185	-0.012787	-0.000941	1.000000	-0.000102	-0.000160	-0.000012	0.218586	-0.134986	0.966436	-0.129738	0.977574	0.165886	-0.967155	-0.161644	0.196171
11408		9.574228	1.688977	1.945193	0.000026	-0.004479	-0.003325	1.000000	0.000000	-0.000056	-0.000042	0.218660	-0.135114	0.966402	-0.129759	0.977546	0.166031	-0.967135	-0.161703	0.196218
11409		9.552426	1.750960	1.925581	-0.006992	-0.001495	0.001151	1.000000	-0.000087	-0.000019	0.000014	0.218761	-0.135142	0.966375	-0.129536	0.977575	0.166032	-0.967142	-0.161502	0.196349
11410		9.638221	1.705498	1.941075	-0.014740	-0.002636	0.010202	1.000000	-0.000184	-0.000033	0.000128	0.218850	-0.134922	0.966385	-0.129290	0.977652	0.165774	-0.967155	-0.161224	0.196515
11411		9.674478	1.708415	1.962970	0.003304	-0.005159	0.010327	1.000000	0.000041	-0.000064	0.000129	0.218864	-0.134724	0.966410	-0.129422	0.977663	0.165603	-0.967134	-0.161319	0.196539
11412		9.653818	1.741398	1.973509	-0.005051	-0.009416	0.003867	1.000000	-0.000063	-0.000118	0.000048	0.218759	-0.134718	0.966434	-0.129272	0.977692	0.165549	-0.967178	-0.161148	0.196464
11413		9.634151	1.703789	1.958063	-0.004207	-0.004588	-0.005099	1.000000	-0.000053	-0.000057	-0.000064	0.218835	-0.134893	0.966393	-0.129153	0.977680	0.165714	-0.967177	-0.161077	0.196529
11414		9.584513	1.724081	1.946578	0.013274	0.003908	-0.014904	1.000000	0.000166	0.000049	-0.000186	0.219144	-0.135272	0.966270	-0.129381	0.977568	0.166196	-0.967076	-0.161438	0.196727
11415		9.593350	1.716624	1.956083	0.000979	0.005621	-0.010750	1.000000	0.000012	0.000070	-0.000134	0.219480	-0.135544	0.966155	-0.129367	0.977514	0.166526	-0.967002	-0.161538	0.197010
11416		9.604367	1.707985	1.975210	0.002090	0.002318	-0.002895	1.000000	0.000026	0.000029	-0.000036	0.219720	-0.135629	0.966089	-0.129415	0.977484	0.166661	-0.966941	-0.161645	0.197221
11417		9.631212	1.671441	1.942012	0.016908	0.000556	-0.002058	1.000000	0.000211	0.000007	-0.000026	0.219896	-0.135711	0.966037	-0.129798	0.977401	0.166853	-0.966850	-0.162080	0.197312
11418		9.626202	1.722192	1.919778	0.019560	0.001403	-0.008002	1.000000	0.000245	0.000018	-0.000100	0.220160	-0.135908	0.965950	-0.130316	0.977272	0.167203	-0.966720	-0.162690	0.197446
11419		9.609304	1.702106	1.964041	0.010597	0.003027	-0.009826	1.000000	0.000132	0.000038	-0.000123	0.220409	-0.136186	0.965854	-0.130460	0.977193	0.167556	-0.966644	-0.162936	0.197615
11420		9.608889	1.704332	1.964141	0.008606	0.001216	-0.004779	1.000000	0.000108	0.000015	-0.000060	0.220622	-0.136326	0.965785	-0.130649	0.977130	0.167773	-0.966570	-0.163193	0.197766
11421		9.618435	1.702988	1.961430	0.008135	-0.006249	0.004252	1.000000	0.000102	-0.000078	0.000053	0.220612	-0.136291	0.965793	-0.130824	0.977107	0.167772	-0.966548	-0.163361	0.197731
11422		9.607629	1.711839	1.940988	-0.000178	-0.010521	0.009553	1.000000	-0.000002	-0.000132	0.000119	0.220506	-0.136120	0.965841	-0.130912	0.977125	0.167598	-0.966560	-0.163397	0.197642
11423		9.603559	1.680735	1.940778	-0.010213	-0.014886	0.008052	1.000000	-0.000128	-0.000186	0.000101	0.220336	-0.135983	0.965899	-0.130844	0.977165	0.167417	-0.966608	-0.163270	0.197512
11424		9.615728	1.686079	1.935041	0.000263	-0.012724	0.010027	1.000000	0.000003	-0.000159	0.000125	0.220132	-0.135836	0.965966	-0.130861	0.977194	0.167236	-0.966653	-0.163221	0.197336
11425		9.645790	1.737551	1.923089	0.010504	-0.011861	0.011634	1.000000	0.000131	-0.000148	0.000145	0.219980	-0.135625	0.966030	-0.131197	0.977178	0.167065	-0.966642	-0.163491	0.197166
11426		9.635509	1.749607	1.950954	-0.000173	-0.015163	0.013646	1.000000	-0.000002	-0.000190	0.000171	0.219759	-0.135370	0.966116	-0.131324	0.977207	0.166796	-0.966675	-0.163529	0.196973
11427		9.618491	1.731860	1.971272	-0.012186	-0.021107	0.011529	1.000000	-0.000152	-0.000264	0.000144	0.219400	-0.135184	0.966224	-0.131144	0.977280	0.166510	-0.966781	-0.163247	0.196687
11428		9.637790	1.675329	1.956115	0.001541	-0.019454	0.007975	1.000000	0.000019	-0.000243	0.000100	0.219100	-0.135079	0.966307	-0.131313	0.977278	0.166387	-0.966826	-0.163345	0.196384
11429		9.640248	1.693288	1.940593	0.016247	-0.012351	0.001073	1.000000	0.000203	-0.000154	0.000013	0.218902	-0.135172	0.966339	-0.131579	0.977223	0.166500	-0.966834	-0.163597	0.196131
11430		9.593415	1.716893	1.986014	0.010919	-0.004590	-0.002623	1.000000	0.000136	-0.000057	-0.000033	0.218941	-0.135302	0.966312	-0.131768	0.977167	0.166677	-0.966800	-0.163821	0.196113
11431		9.604723	1.725062	1.982095	0.001873	-0.003595	0.001696	1.000000	0.000023	-0.000045	0.000021	0.219007	-0.135314	0.966295	-0.131799	0.977158	0.166707	-0.966781	-0.163867	0.196171
11432		9.670788	1.742252	1.986396	0.008889	-0.006843	0.013777	1.000000	0.000111	-0.000086	0.000172	0.218935	-0.135052	0.966348	-0.132017	0.977168	0.166474	-0.966767	-0.164022	0.196107
11433		9.663928	1.759426	1.974506	-0.001127	-0.011104	0.014902	1.000000	-0.000014	-0.000139	0.000186	0.218741	-0.134788	0.966429	-0.131976	0.977226	0.166166	-0.966817	-0.163893	0.195970
11434		9.675710	1.665519	1.965215	0.002715	-0.008126	-0.000830	1.000000	0.000034	-0.000102	-0.000010	0.218692	-0.134887	0.966426	-0.132019	0.977204	0.166265	-0.966822	-0.163948	0.195899
11435		9.594745	1.684693	1.999126	0.016083	0.000838	-0.007686	1.000000	0.000201	0.000010	-0.000096	0.218922	-0.135086	0.966346	-0.132396	0.977099	0.166583	-0.966718	-0.164409	0.196024
11436		9.551393	1.761294	1.963739	0.023209	0.007664	-0.005580	1.000000	0.000290	0.000096	-0.000070	0.219282	-0.135227	0.966245	-0.132914	0.976975	0.166893	-0.966566	-0.165024	0.196260
11437		9.603359	1.772220	1.964508	-0.001957	0.012183	0.006264	1.000000	-0.000024	0.000152	0.000078	0.219755	-0.135035	0.966164	-0.132960	0.976987	0.166789	-0.966452	-0.165114	0.196743
11438		9.672507	1.668119	1.959333	0.005466	0.011469	0.005576	1.000000	0.000068	0.000143	0.000070	0.220118	-0.134920	0.966098	-0.132985	0.976992	0.166741	-0.966366	-0.165179	0.197111
11439		9.674166	1.768934	1.974611	0.016074	0.005350	-0.003491	1.000000	0.000201	0.000067	-0.000044	0.220418	-0.135017	0.966016	-0.133324	0.976908	0.166960	-0.966251	-0.165594	0.197328
11440		9.632585	1.759070	1.984122	-0.006476	0.001514	-0.010328	1.000000	-0.000081	0.000019	-0.000129	0.220643	-0.135295	0.965926	-0.133111	0.976890	0.167236	-0.966229	-0.165475	0.197534
11441		9.570972	1.698446	1.940712	0.002091	0.002465	-0.010316	1.000000	0.000026	0.000031	-0.000129	0.220902	-0.135561	0.965829	-0.133112	0.976836	0.167551	-0.966170	-0.165575	0.197740
11442		9.588378	1.746650	1.935095	0.011021	0.005320	-0.005182	1.000000	0.000138	0.000067	-0.000065	0.221198	-0.135700	0.965742	-0.133351	0.976762	0.167792	-0.966069	-0.165898	0.197962
11443		9.610895	1.735980	1.962079	0.002588	0.005006	0.000432	1.000000	0.000032	0.000063	0.000005	0.221551	-0.135653	0.965667	-0.133583	0.976719	0.167853	-0.965956	-0.166185	0.198273
11444		9.629784	1.723683	1.969478	0.003354	0.000030	-0.002501	1.000000	0.000042	0.000000	-0.000031	0.221747	-0.135729	0.965612	-0.133679	0.976684	0.167984	-0.965898	-0.166332	0.198432
11445		9.634894	1.753067	1.966125	0.009513	-0.003071	-0.000359	1.000000	0.000119	-0.000038	-0.000004	0.221828	-0.135783	0.965586	-0.133886	0.976636	0.168095	-0.965850	-0.166567	0.198466
11446		9.615818	1.767019	1.958143	0.008780	-0.002364	-0.006416	1.000000	0.000110	-0.000030	-0.000080	0.221954	-0.135987	0.965528	-0.134043	0.976570	0.168355	-0.965800	-0.166789	0.198525
11447		9.624948	1.780493	1.994956	-0.000961	-0.000561	-0.005550	1.000000	-0.000012	-0.000007	-0.000069	0.222130	-0.136150	0.965464	-0.134006	0.976543	0.168544	-0.965764	-0.166817	0.198674
11448		9.604885	1.748743	2.030477	-0.006537	-0.003541	-0.005772	1.000000	-0.000082	-0.000044	-0.000072	0.222274	-0.136308	0.965409	-0.133897	0.976529	0.168707	-0.965746	-0.166764	0.198806
11449		9.611009	1.720336	2.040232	0.003576	-0.003253	-0.008061	1.000000	0.000045	-0.000041	-0.000101	0.222357	-0.136563	0.965354	-0.133888	0.976484	0.168977	-0.965728	-0.166823	0.198844
11450		9.615393	1.769564	2.015679	0.003620	-0.002939	-0.011127	1.000000	0.000045	-0.000037	-0.000139	0.222446	-0.136904	0.965285	-0.133821	0.976433	0.169323	-0.965717	-0.166840	0.198883
11451		9.617317	1.741538	2.006879	-0.003150	0.001471	-0.014568	1.000000	-0.000039	0.000018	-0.000182	0.222666	-0.137298	0.965178	-0.133632	0.976390	0.169721	-0.965693	-0.166770	0.199061
11452		9.592412	1.741980	2.042475	-0.007165	0.002405	-0.011168	1.000000	-0.000090	0.000030	-0.000140	0.222908	-0.137598	0.965080	-0.133371	0.976375	0.170014	-0.965673	-0.166611	0.199290
11453		9.591775	1.752726	2.032463	-0.002614	-0.000404	-0.005397	1.000000	-0.000033	-0.000005	-0.000067	0.222993	-0.137813	0.965029	-0.133112	0.976379	0.170193	-0.965689	-0.166409	0.199381
11454		9.617588	1.778652	2.035525	-0.006462	-0.003285	0.001182	1.000000	-0.000081	-0.000041	0.000015	0.223111	-0.137806	0.965003	-0.133046	0.976388	0.170193	-0.965671	-0.166362	0.199508
11455		9.625225	1.789033	2.062999	-0.023534	-0.004825	-0.000169	1.000000	-0.000294	-0.000060	-0.000002	0.223153	-0.137861	0.964986	-0.132491	0.976472	0.170140	-0.965737	-0.165819	0.199637
11456		9.611357	1.730123	2.049347	-0.018031	-0.002066	-0.006030	1.000000	-0.000225	-0.000026	-0.000075	0.223266	-0.138061	0.964931	-0.131980	0.976521	0.170257	-0.965781	-0.165364	0.199803
11457		9.584230	1.742153	2.004749	-0.001162	0.003163	-0.011335	1.000000	-0.000015	0.000040	-0.000142	0.223510	-0.138379	0.964829	-0.131812	0.976487	0.170586	-0.965748	-0.165304	0.200014
11458		9.617458	1.840436	2.033384	-0.004188	0.004902	-0.007189	1.000000	-0.000052	0.000061	-0.000090	0.223804	-0.138575	0.964732	-0.131626	0.976475	0.170797	-0.965705	-0.165209	0.200299
11459		9.661198	1.803282	2.037986	-0.026076	-0.000243	-0.000099	1.000000	-0.000326	-0.000003	-0.000001	0.223922	-0.138632	0.964697	-0.130926	0.976581	0.170730	-0.965773	-0.164534	0.200527
11460		9.604487	1.730847	2.024035	-0.026927	-0.004932	0.000594	1.000000	-0.000337	-0.000062	0.000007	0.223948	-0.138682	0.964684	-0.130226	0.976690	0.170639	-0.965861	-0.163842	0.200668
11461		9.611261	1.665720	1.965750	0.002960	-0.006468	-0.014421	1.000000	0.000037	-0.000081	-0.000180	0.223986	-0.139105	0.964614	-0.130165	0.976624	0.171062	-0.965861	-0.163875	0.200643
11462		9.623317	1.791988	2.015252	0.009399	0.001464	-0.019692	1.000000	0.000117	0.000018	-0.000246	0.224208	-0.139640	0.964485	-0.130176	0.976521	0.171644	-0.965808	-0.164037	0.200766
11463		9.546172	1.746579	1.984699	-0.000613	0.010947	-0.011675	1.000000	-0.000008	0.000137	-0.000146	0.224604	-0.139951	0.964348	-0.129961	0.976490	0.171982	-0.965745	-0.163955	0.201135
11464		9.575522	1.743485	1.991475	0.003627	0.010905	-0.002497	1.000000	0.000045	0.000136	-0.000031	0.225043	-0.139996	0.964239	-0.130046	0.976454	0.172121	-0.965631	-0.164130	0.201539
11465		9.652298	1.730479	1.988919	0.009107	0.008683	-0.002069	1.000000	0.000114	0.000109	-0.000026	0.225406	-0.140048	0.964147	-0.130219	0.976404	0.172272	-0.965523	-0.164382	0.201851
11466		9.675505	1.766105	1.973021	0.013698	0.001612	-0.005293	1.000000	0.000171	0.000020	-0.000066	0.225636	-0.140194	0.964072	-0.130548	0.976315	0.172529	-0.965425	-0.164787	0.201989
11467		9.628098	1.776981	1.981379	0.004574	-0.002398	-0.006446	1.000000	0.000057	-0.000030	-0.000081	0.225725	-0.140406	0.964020	-0.130609	0.976264	0.172771	-0.965396	-0.164908	0.202029
11468		9.556612	1.694926	2.009170	0.015045	-0.004767	-0.009538	1.000000	0.000188	-0.000060	-0.000119	0.225814	-0.140687	0.963958	-0.130930	0.976156	0.173138	-0.965332	-0.165308	0.202009
11469		9.526808	1.761616	1.999745	0.016225	-0.002974	-0.005363	1.000000	0.000203	-0.000037	-0.000067	0.225903	-0.140872	0.963910	-0.131244	0.976066	0.173407	-0.965268	-0.165681	0.202008
11470		9.571646	1.784338	1.997925	0.007323	-0.006125	0.005194	1.000000	0.000092	-0.000077	0.000065	0.225880	-0.140819	0.963923	-0.131361	0.976056	0.173374	-0.965258	-0.165783	0.201973
11471		9.653172	1.800987	2.027977	0.006078	-0.013407	0.016918	1.000000	0.000076	-0.000168	0.000211	0.225633	-0.140506	0.964027	-0.131559	0.976086	0.173055	-0.965289	-0.165874	0.201752
11472		9.619222	1.795787	2.050934	0.004182	-0.019287	0.018197	1.000000	0.000052	-0.000241	0.000227	0.225252	-0.140184	0.964163	-0.131702	0.976131	0.172693	-0.965358	-0.165882	0.201412
11473		9.567970	1.799920	2.026272	-0.001197	-0.020887	0.009193	1.000000	-0.000015	-0.000261	0.000115	0.224876	-0.140080	0.964266	-0.131700	0.976162	0.172522	-0.965446	-0.165789	0.201067
11474		9.589484	1.826250	2.046274	-0.006969	-0.015608	0.008242	1.000000	-0.000087	-0.000195	0.000103	0.224600	-0.139992	0.964343	-0.131508	0.976219	0.172345	-0.965536	-0.165528	0.200848
11475		9.607631	1.819159	2.030020	-0.002980	-0.012271	0.013828	1.000000	-0.000037	-0.000153	0.000173	0.224422	-0.139735	0.964421	-0.131549	0.976263	0.172063	-0.965572	-0.165484	0.200713
11476		9.617420	1.777194	2.057573	0.005533	-0.011656	0.016029	1.000000	0.000069	-0.000146	0.000200	0.224259	-0.139419	0.964505	-0.131793	0.976282	0.171765	-0.965577	-0.165635	0.200566
11477		9.584706	1.777943	2.030587	0.012297	-0.015878	0.012920	1.000000	0.000154	-0.000198	0.000162	0.223988	-0.139204	0.964599	-0.132135	0.976270	0.171571	-0.965593	-0.165887	0.200279
11478		9.616697	1.830669	2.027218	0.001681	-0.013949	0.003858	1.000000	0.000021	-0.000174	0.000048	0.223776	-0.139207	0.964648	-0.132171	0.976270	0.171545	-0.965637	-0.165886	0.200067
