// Start Time: Unknown
// Update Rate: 40.0Hz
// Filter Profile: human (46.1)
// Firmware Version: 4.3.4
PacketCounter	SampleTimeFine	Acc_X	Acc_Y	Acc_Z	Gyr_X	Gyr_Y	Gyr_Z	OriInc_q0	OriInc_q1	OriInc_q2	OriInc_q3	Mat[1][1]	Mat[2][1]	Mat[3][1]	Mat[1][2]	Mat[2][2]	Mat[3][2]	Mat[1][3]	Mat[2][3]	Mat[3][3]
10839		9.753260	1.496169	0.162118	-0.024760	0.081524	-0.025040	0.999999	-0.000310	0.001019	-0.000313	0.101860	0.112932	0.988368	-0.733652	-0.662466	0.151303	0.671847	-0.740530	0.015373
10840		10.257147	1.622622	0.105787	0.054566	0.051062	0.054933	0.999999	0.000682	0.000638	0.000687	0.099995	0.112966	0.988554	-0.732874	-0.663631	0.149968	0.672977	-0.739481	0.016430
10841		10.327375	1.780910	0.192762	0.020357	0.048127	0.128464	0.999998	0.000254	0.000602	0.001606	0.096825	0.111700	0.989014	-0.732838	-0.664382	0.146781	0.673478	-0.738999	0.017529
10842		10.235639	1.679276	0.252315	0.027369	0.050222	0.145561	0.999998	0.000342	0.000628	0.001820	0.093323	0.110178	0.989521	-0.732703	-0.665315	0.143182	0.674119	-0.738387	0.018639
10843		10.201230	1.628188	0.307668	0.077909	0.007307	0.179911	0.999997	0.000974	0.000091	0.002249	0.089934	0.107369	0.990143	-0.731802	-0.667229	0.138821	0.675557	-0.737074	0.018566
10844		10.193755	1.926131	0.309653	0.056156	-0.028916	0.204803	0.999996	0.000702	-0.000361	0.002560	0.086716	0.103541	0.990838	-0.731317	-0.668767	0.133888	0.676503	-0.736227	0.017728
10845		9.816046	1.829398	0.230765	0.015615	-0.008548	0.187752	0.999997	0.000195	-0.000107	0.002347	0.083532	0.100380	0.991437	-0.731410	-0.669546	0.129413	0.676802	-0.735957	0.017491
10846		9.525761	1.930879	0.488928	-0.005069	0.005179	0.178723	0.999998	-0.000063	0.000065	0.002234	0.080379	0.097756	0.991959	-0.731813	-0.669885	0.125315	0.676749	-0.736001	0.017695
10847		9.591078	1.872799	0.348996	-0.031770	-0.023914	0.186138	0.999997	-0.000397	-0.000299	0.002327	0.077656	0.094610	0.992481	-0.732609	-0.669777	0.121170	0.676205	-0.736510	0.017300
10848		9.345864	1.767051	0.318096	0.057057	-0.022264	0.197842	0.999997	0.000713	-0.000278	0.002473	0.074801	0.091475	0.992994	-0.731883	-0.671316	0.116974	0.677313	-0.735505	0.016734
10849		9.214166	1.883798	0.369499	0.130019	-0.000097	0.221108	0.999995	0.001625	-0.000001	0.002764	0.071313	0.088590	0.993512	-0.729936	-0.674192	0.112510	0.679785	-0.733224	0.016587
10850		9.366273	2.036627	0.548104	0.191884	0.002730	0.230442	0.999993	0.002399	0.000034	0.002881	0.067696	0.085678	0.994020	-0.726847	-0.678261	0.107962	0.683455	-0.729809	0.016359
10851		9.502951	1.965464	0.276147	0.259723	0.010239	0.222769	0.999991	0.003247	0.000128	0.002785	0.064268	0.083473	0.994435	-0.722502	-0.683491	0.104066	0.688375	-0.725170	0.016383
10852		9.686096	2.113952	0.331282	0.424112	-0.022858	0.189818	0.999983	0.005301	-0.000286	0.002373	0.062187	0.081303	0.994748	-0.715134	-0.691617	0.101234	0.696215	-0.717674	0.015133
10853		9.901452	2.652812	0.583989	0.474383	-0.051323	0.199164	0.999979	0.005930	-0.000642	0.002490	0.060688	0.078628	0.995055	-0.706741	-0.700587	0.098463	0.704864	-0.709222	0.013053
10854		9.665853	2.665953	0.620705	0.533732	-0.057663	0.184324	0.999975	0.006672	-0.000721	0.002304	0.059949	0.076441	0.995270	-0.697086	-0.710456	0.096554	0.714477	-0.699577	0.010695
10855		9.437460	2.571661	0.587937	0.607032	-0.078393	0.156093	0.999969	0.007588	-0.000980	0.001951	0.060514	0.074938	0.995350	-0.685889	-0.721345	0.096009	0.725185	-0.688510	0.007748
10856		9.268982	2.153268	0.291848	0.752921	-0.069972	0.168662	0.999953	0.009411	-0.000875	0.002108	0.060654	0.073808	0.995426	-0.671579	-0.734766	0.095401	0.738447	-0.674293	0.005002
10857		8.565489	1.726717	0.985288	0.758812	0.005227	0.196511	0.999952	0.009485	0.000065	0.002456	0.059329	0.073546	0.995526	-0.657058	-0.747905	0.094411	0.751502	-0.659719	0.003952
10858		9.651404	0.531421	1.223518	0.458581	-0.034466	0.160881	0.999981	0.005732	-0.000431	0.002011	0.058985	0.072986	0.995587	-0.647907	-0.755922	0.093802	0.759432	-0.650581	0.002700
10859		10.913955	-0.609914	0.672013	0.345089	0.002045	0.058356	0.999990	0.004314	0.000026	0.000729	0.059348	0.075255	0.995397	-0.640615	-0.761863	0.095794	0.765565	-0.643352	0.002994
10860		10.839055	-0.327665	0.794207	0.265925	0.122907	0.111229	0.999992	0.003324	0.001536	0.001390	0.055509	0.077823	0.995421	-0.634947	-0.766650	0.095345	0.770559	-0.637331	0.006857
10861		10.665971	-0.454431	1.061507	0.037172	0.201239	0.224554	0.999993	0.000465	0.002515	0.002807	0.047710	0.078917	0.995739	-0.633897	-0.768016	0.091242	0.771944	-0.635549	0.013384
10862		10.323566	-0.887958	0.899188	-0.142338	0.173489	0.274950	0.999990	-0.001779	0.002169	0.003437	0.039407	0.077979	0.996176	-0.636873	-0.766250	0.085175	0.769961	-0.637794	0.019467
10863		10.230869	-1.393948	0.203909	-0.284284	0.096399	0.367664	0.999982	-0.003554	0.001205	0.004596	0.030063	0.073626	0.996833	-0.642070	-0.762898	0.075711	0.766056	-0.642313	0.024338
10864		10.042948	-2.329350	-0.625353	-0.270713	0.021516	0.454513	0.999978	-0.003384	0.000269	0.005681	0.020576	0.065413	0.997646	-0.647185	-0.759712	0.063160	0.762056	-0.646961	0.026702
10865		9.298750	-2.516342	-0.642769	-0.143153	0.003272	0.460308	0.999982	-0.001789	0.000041	0.005754	0.011193	0.056024	0.998367	-0.649918	-0.758368	0.049843	0.759922	-0.649414	0.027923
10866		9.114847	-2.124036	-0.570109	0.081385	-0.035520	0.361857	0.999989	0.001017	-0.000444	0.004523	0.003981	0.047526	0.998862	-0.648816	-0.759958	0.038745	0.760935	-0.648232	0.027810
10867		9.057798	-1.096865	-0.094152	0.148536	-0.019091	0.258358	0.999993	0.001857	-0.000239	0.003229	-0.002107	0.040706	0.999169	-0.646214	-0.762578	0.029705	0.763154	-0.645614	0.027911
10868		9.525666	-0.504129	0.317577	0.175535	-0.006730	0.190459	0.999995	0.002194	-0.000084	0.002381	-0.007298	0.034970	0.999362	-0.643054	-0.765502	0.022091	0.765786	-0.642482	0.028074
10869		9.673566	-0.751457	0.915131	0.099811	0.054635	0.115879	0.999998	0.001248	0.000683	0.001448	-0.012471	0.031725	0.999419	-0.641369	-0.767058	0.016346	0.767131	-0.640792	0.029914
10870		9.395091	-1.128451	0.790544	0.104794	0.000279	0.040611	0.999999	0.001310	0.000003	0.000508	-0.015286	0.029084	0.999460	-0.639856	-0.768392	0.012574	0.768343	-0.639318	0.030355
10871		9.748057	-1.074093	0.881482	0.183752	-0.057207	-0.005840	0.999997	0.002297	-0.000715	-0.000073	-0.016536	0.026432	0.999514	-0.636610	-0.771123	0.009860	0.771009	-0.636137	0.029578
10872		9.746151	-0.791294	0.680799	0.158596	-0.095909	0.021517	0.999997	0.001982	-0.001199	0.000269	-0.017562	0.022635	0.999590	-0.633625	-0.773614	0.006385	0.773441	-0.633252	0.027929
10873		9.574965	-1.127134	0.546250	0.058508	-0.062799	-0.022542	0.999999	0.000731	-0.000785	-0.000282	-0.018217	0.020285	0.999628	-0.632688	-0.774395	0.004184	0.774192	-0.632377	0.026941
10874		9.518933	-1.632259	0.654295	0.166400	-0.071814	-0.071069	0.999997	0.002080	-0.000898	-0.000888	-0.018216	0.018730	0.999659	-0.629964	-0.776619	0.003072	0.776411	-0.629693	0.025947
10875		9.584250	-1.209245	0.556480	0.257681	-0.052879	-0.092016	0.999994	0.003221	-0.000661	-0.001150	-0.018014	0.017838	0.999679	-0.624974	-0.780641	0.002668	0.780438	-0.624725	0.025211
10876		9.620448	-0.804321	0.618430	0.228572	-0.040217	-0.106482	0.999995	0.002857	-0.000503	-0.001331	-0.017879	0.017449	0.999688	-0.620264	-0.784389	0.002598	0.784189	-0.620024	0.024847
10877		10.121251	-1.074966	0.698736	0.261226	-0.035743	-0.083963	0.999994	0.003265	-0.000447	-0.001050	-0.018217	0.016776	0.999693	-0.615218	-0.788355	0.002018	0.788147	-0.614992	0.024682
10878		10.130835	-1.505571	0.755661	0.412035	-0.113063	-0.068307	0.999985	0.005150	-0.001413	-0.000854	-0.017322	0.014678	0.999742	-0.607342	-0.794440	0.001141	0.794252	-0.607166	0.022676
10879		9.597238	-0.821388	0.739694	0.411603	-0.152098	-0.095186	0.999984	0.005145	-0.001901	-0.001190	-0.015264	0.012501	0.999805	-0.600039	-0.799971	0.000841	0.799825	-0.599909	0.019712
10880		9.171465	-0.507152	0.843728	0.244997	-0.181811	-0.125226	0.999992	0.003062	-0.002273	-0.001565	-0.012069	0.010604	0.999871	-0.594944	-0.803766	0.001343	0.803677	-0.594851	0.016010
10881		9.611096	-1.084355	0.782949	0.241539	-0.161247	-0.139929	0.999992	0.003019	-0.002016	-0.001749	-0.008594	0.009629	0.999917	-0.589982	-0.807412	0.002705	0.807371	-0.589910	0.012620
10882		10.471339	-0.951983	0.702823	0.356660	-0.100914	-0.076681	0.999989	0.004458	-0.001261	-0.000959	-0.007480	0.008239	0.999938	-0.582526	-0.812809	0.002340	0.812778	-0.582472	0.010879
10883		10.525104	-0.071885	0.369965	0.372004	-0.092233	-0.080234	0.999988	0.004650	-0.001153	-0.001003	-0.006883	0.007095	0.999951	-0.574665	-0.818386	0.001851	0.818360	-0.574625	0.009710
10884		9.890949	0.111078	0.606595	0.268561	-0.042993	-0.084308	0.999994	0.003357	-0.000537	-0.001054	-0.006732	0.006953	0.999953	-0.568994	-0.822339	0.001887	0.822314	-0.568955	0.009492
10885		10.189363	-0.139854	0.442770	0.170452	0.012303	-0.044251	0.999998	0.002131	0.000154	-0.000553	-0.007978	0.007052	0.999943	-0.566151	-0.824301	0.001296	0.824263	-0.566108	0.010568
10886		10.130755	-0.127998	0.808181	0.120096	0.073170	-0.006032	0.999998	0.001501	0.000915	-0.000075	-0.010924	0.007253	0.999914	-0.563731	-0.825958	-0.000167	0.825886	-0.563684	0.013112
10887		9.847125	-0.050282	0.548437	0.094057	0.061802	-0.030343	0.999999	0.001176	0.000773	-0.000379	-0.013665	0.007849	0.999876	-0.562290	-0.826939	-0.001193	0.826827	-0.562236	0.015713
10888		9.799746	-0.014057	0.454233	0.107227	0.103267	-0.062350	0.999998	0.001340	0.001291	-0.000779	-0.016678	0.009749	0.999813	-0.560476	-0.828170	-0.001274	0.828003	-0.560392	0.019276
10889		10.031528	0.126137	0.376900	0.102621	0.158595	-0.071042	0.999997	0.001283	0.001982	-0.000888	-0.020303	0.012788	0.999712	-0.559252	-0.828998	-0.000753	0.828749	-0.559106	0.023983
10890		10.063563	0.211291	0.419301	0.097863	0.188672	-0.055590	0.999996	0.001223	0.002358	-0.000695	-0.024681	0.016010	0.999567	-0.557589	-0.830117	-0.000472	0.829750	-0.557359	0.029415
10891		9.791981	0.232363	0.310754	0.059301	0.177985	-0.056204	0.999997	0.000741	0.002225	-0.000703	-0.029109	0.019131	0.999393	-0.557301	-0.830310	-0.000338	0.829800	-0.556973	0.034831
10892		9.801276	0.246878	0.220015	0.031249	0.198924	-0.070536	0.999996	0.000391	0.002487	-0.000882	-0.033411	0.022891	0.999180	-0.557195	-0.830382	0.000392	0.829709	-0.556725	0.040498
10893		9.962665	0.304340	0.341950	0.032079	0.189633	-0.056655	0.999997	0.000401	0.002370	-0.000708	-0.037421	0.026288	0.998954	-0.556484	-0.830858	0.001019	0.830015	-0.555864	0.045721
10894		9.915397	0.296377	0.230750	0.026923	0.185362	-0.032347	0.999997	0.000337	0.002317	-0.000404	-0.041650	0.029091	0.998709	-0.555681	-0.831395	0.001043	0.830352	-0.554919	0.050793
10895		9.732159	0.281173	0.528528	0.023633	0.198197	-0.035951	0.999997	0.000295	0.002477	-0.000449	-0.046098	0.032247	0.998416	-0.555151	-0.831749	0.001232	0.830471	-0.554215	0.056244
10896		9.833254	0.308592	0.623321	0.002490	0.186174	-0.043906	0.999997	0.000031	0.002327	-0.000549	-0.050137	0.035434	0.998114	-0.555492	-0.831520	0.001616	0.830009	-0.554363	0.061373
10897		9.832130	0.263449	0.681804	0.004059	0.180111	-0.038144	0.999997	0.000051	0.002251	-0.000477	-0.054196	0.038295	0.997796	-0.554665	-0.832072	0.001808	0.830307	-0.553344	0.066335
10898		9.760477	0.189403	0.812724	0.022227	0.198505	-0.039107	0.999997	0.000278	0.002481	-0.000489	-0.058562	0.041484	0.997421	-0.553875	-0.832597	0.002109	0.830538	-0.552323	0.071736
10899		9.914703	0.152731	0.646489	0.060743	0.196292	-0.062715	0.999996	0.000759	0.002454	-0.000784	-0.062339	0.045241	0.997029	-0.552447	-0.833542	0.003281	0.831214	-0.550601	0.076955
10900		9.832297	-0.164247	0.663346	0.160791	0.197709	-0.115271	0.999994	0.002010	0.002471	-0.001441	-0.065351	0.050325	0.996593	-0.550150	-0.835044	0.006091	0.832505	-0.547877	0.082257
10901		9.721171	0.119872	0.890438	0.250942	0.198768	-0.133255	0.999991	0.003137	0.002485	-0.001666	-0.068208	0.055599	0.996121	-0.544943	-0.838419	0.009482	0.835694	-0.542183	0.087485
10902		9.877592	0.934388	0.778402	0.170415	0.152151	-0.102406	0.999995	0.002130	0.001902	-0.001280	-0.070214	0.059534	0.995754	-0.541466	-0.840636	0.012079	0.837786	-0.538319	0.091260
10903		9.915783	0.869322	0.615053	0.081213	0.158398	-0.096705	0.999997	0.001015	0.001980	-0.001209	-0.072683	0.063550	0.995328	-0.539958	-0.841571	0.014303	0.838548	-0.536396	0.095482
10904		9.769096	0.639893	0.744393	0.084479	0.152225	-0.107715	0.999997	0.001056	0.001903	-0.001346	-0.074696	0.067670	0.994908	-0.538297	-0.842586	0.016895	0.839438	-0.534294	0.099364
10905		9.628794	0.747644	0.796680	0.105166	0.124776	-0.058336	0.999998	0.001315	0.001560	-0.000729	-0.076967	0.070462	0.994541	-0.536402	-0.843765	0.018268	0.840445	-0.532068	0.102738
10906		9.607856	0.635577	0.697732	0.138423	0.103689	-0.029397	0.999998	0.001730	0.001296	-0.000367	-0.079186	0.072328	0.994232	-0.533212	-0.845767	0.019059	0.842267	-0.528628	0.105539
10907		9.554718	0.542929	0.634806	0.183632	0.069231	-0.006195	0.999997	0.002295	0.000865	-0.000077	-0.081195	0.073248	0.994003	-0.529020	-0.848390	0.019305	0.844716	-0.524280	0.107635
10908		9.615314	0.579794	0.677216	0.187170	0.044619	0.054087	0.999997	0.002340	0.000558	0.000676	-0.083082	0.072619	0.993893	-0.524858	-0.850993	0.018303	0.847125	-0.520132	0.108817
10909		9.671413	0.368705	0.672800	0.157181	-0.032052	0.099413	0.999997	0.001965	-0.000401	0.001243	-0.083788	0.069925	0.994027	-0.521012	-0.853397	0.016116	0.849427	-0.516550	0.107936
10910		9.622937	0.486695	0.213843	0.146015	-0.112092	0.106353	0.999996	0.001825	-0.001401	0.001329	-0.082803	0.066092	0.994372	-0.517446	-0.855605	0.013780	0.851700	-0.513393	0.105046
10911		9.769087	0.719657	0.612966	0.139674	-0.125191	0.110311	0.999996	0.001746	-0.001565	0.001379	-0.081614	0.062179	0.994723	-0.514466	-0.857435	0.011387	0.853618	-0.510822	0.101967
10912		9.868699	0.297085	0.595628	0.101824	-0.119254	0.123648	0.999997	0.001273	-0.001491	0.001546	-0.080423	0.057984	0.995073	-0.512011	-0.858935	0.008670	0.855206	-0.508791	0.098766
10913		9.853736	-0.045157	0.822833	0.075720	-0.130220	0.107603	0.999997	0.000947	-0.001628	0.001345	-0.078945	0.053922	0.995420	-0.509938	-0.860189	0.006155	0.856581	-0.507116	0.095404
10914		9.733963	0.032710	0.703825	0.050961	-0.147234	0.106822	0.999997	0.000637	-0.001840	0.001335	-0.077037	0.049724	0.995788	-0.508534	-0.861034	0.003654	0.857589	-0.506110	0.091618
10915		9.750600	-0.050203	0.560208	0.024610	-0.156422	0.074243	0.999998	0.000308	-0.001955	0.000928	-0.074481	0.045999	0.996161	-0.507861	-0.861437	0.001806	0.858213	-0.505777	0.087522
10916		9.903865	0.071769	0.467810	0.006230	-0.163052	0.071837	0.999998	0.000078	-0.002038	0.000898	-0.071978	0.042116	0.996517	-0.507260	-0.861793	-0.000217	0.858782	-0.505509	0.083394
10917		9.864930	0.065141	0.546873	-0.065587	-0.144558	0.083791	0.999997	-0.000820	-0.001807	0.001047	-0.069809	0.038319	0.996824	-0.508434	-0.861098	-0.002505	0.858267	-0.506994	0.079595
10918		9.701697	-0.287254	0.692459	-0.095318	-0.160153	0.044932	0.999997	-0.001191	-0.002002	0.000562	-0.066989	0.035358	0.997127	-0.510397	-0.859930	-0.003797	0.857326	-0.509185	0.075652
10919		9.749442	-0.303252	0.530275	-0.107114	-0.152717	0.014066	0.999997	-0.001339	-0.001909	0.000176	-0.063938	0.032979	0.997409	-0.512509	-0.858670	-0.004463	0.856298	-0.511466	0.071804
10920		10.094896	-0.141531	0.488921	-0.143951	-0.056841	-0.004289	0.999998	-0.001799	-0.000711	-0.000054	-0.062651	0.032143	0.997518	-0.515545	-0.856849	-0.004770	0.854569	-0.514564	0.070254
10921		10.280951	-0.112545	0.932644	-0.122336	0.005630	0.002511	0.999999	-0.001529	0.000070	0.000031	-0.062826	0.032257	0.997503	-0.518318	-0.855173	-0.004991	0.852877	-0.517337	0.070446
10922		9.895414	-0.202840	0.641368	-0.126151	-0.048580	0.021466	0.999999	-0.001577	-0.000607	0.000268	-0.061875	0.031002	0.997602	-0.520931	-0.853579	-0.005784	0.851353	-0.520040	0.068965
10923		9.829662	-0.206288	0.533107	-0.114152	0.014679	0.032283	0.999999	-0.001427	0.000183	0.000404	-0.062671	0.030360	0.997572	-0.523284	-0.852130	-0.006941	0.849850	-0.522449	0.069291
10924		10.069303	-0.071922	0.750613	-0.122322	0.054016	0.038826	0.999998	-0.001529	0.000675	0.000485	-0.064275	0.029887	0.997485	-0.525736	-0.850606	-0.008391	0.848216	-0.524953	0.070386
10925		9.857486	-0.048140	0.746823	-0.173222	0.055377	0.033095	0.999997	-0.002165	0.000692	0.000414	-0.066008	0.029841	0.997373	-0.529418	-0.848306	-0.009657	0.845789	-0.528664	0.071794
10926		9.848501	-0.049263	0.763339	-0.191651	0.057131	0.037121	0.999997	-0.002396	0.000714	0.000464	-0.067658	0.029843	0.997262	-0.533436	-0.845770	-0.010881	0.843130	-0.532712	0.073142
10927		9.798630	-0.167078	0.644499	-0.188696	0.026779	0.037368	0.999997	-0.002359	0.000335	0.000467	-0.068758	0.029463	0.997198	-0.537263	-0.843327	-0.012128	0.840607	-0.536592	0.073815
10928		9.660549	-0.222072	0.392168	-0.168237	0.010159	0.009240	0.999998	-0.002103	0.000127	0.000116	-0.068864	0.029276	0.997196	-0.540885	-0.841001	-0.012661	0.838273	-0.540240	0.073750
10929		9.821436	-0.175002	0.485763	-0.134033	0.065516	-0.007019	0.999998	-0.001675	0.000819	-0.000088	-0.070076	0.030092	0.997088	-0.543882	-0.839062	-0.012901	0.836231	-0.543202	0.075164
10930		9.932365	-0.037490	0.609214	-0.150612	0.063926	-0.006783	0.999998	-0.001883	0.000799	-0.000085	-0.071419	0.031167	0.996959	-0.547017	-0.837020	-0.013020	0.834069	-0.546284	0.076828
10931		9.696563	-0.014498	0.714343	-0.165466	0.028472	-0.019600	0.999998	-0.002068	0.000356	-0.000245	-0.071804	0.031700	0.996915	-0.550454	-0.834762	-0.013104	0.831772	-0.549697	0.077388
10932		9.606917	-0.244920	0.738095	-0.143095	0.043948	-0.041838	0.999998	-0.001789	0.000549	-0.000523	-0.072311	0.033041	0.996835	-0.553473	-0.832773	-0.012546	0.829722	-0.552628	0.078506
10933		9.759782	-0.290801	0.689960	-0.073088	0.038652	-0.059503	0.999999	-0.000914	0.000483	-0.000744	-0.072329	0.034743	0.996776	-0.555035	-0.831751	-0.011284	0.828677	-0.554061	0.079443
10934		9.817364	-0.375442	0.576511	0.014351	0.053600	-0.048203	1.000000	0.000179	0.000670	-0.000603	-0.072793	0.036490	0.996679	-0.554752	-0.831955	-0.010057	0.828825	-0.553642	0.080804
10935		9.872500	-0.392142	0.771436	0.105639	0.083782	-0.033318	0.999998	0.001320	0.001047	-0.000416	-0.074169	0.038334	0.996509	-0.552653	-0.833362	-0.009075	0.830104	-0.551397	0.082995
10936		10.156282	0.142746	0.792411	0.146199	0.097606	-0.020707	0.999998	0.001827	0.001220	-0.000259	-0.076025	0.039958	0.996305	-0.549535	-0.835428	-0.008428	0.832004	-0.548145	0.085471
10937		9.978509	0.193447	0.857567	0.104073	0.104765	-0.009290	0.999998	0.001301	0.001310	-0.000116	-0.077979	0.041351	0.996097	-0.547411	-0.836824	-0.008115	0.833223	-0.545908	0.087891
10938		9.770505	-0.092025	0.914603	0.112146	0.114630	-0.012761	0.999998	0.001402	0.001433	-0.000160	-0.080268	0.043146	0.995839	-0.544981	-0.838414	-0.007602	0.834597	-0.543324	0.090811
10939		9.713001	-0.258503	1.172624	0.140630	0.120297	-0.002002	0.999997	0.001758	0.001504	-0.000025	-0.082590	0.044519	0.995589	-0.542082	-0.840293	-0.007394	0.836257	-0.540301	0.093532
10940		9.788484	-0.014258	1.108439	0.173881	0.083237	-0.006484	0.999997	0.002174	0.001040	-0.000081	-0.084339	0.045783	0.995385	-0.538454	-0.842627	-0.006867	0.838424	-0.536548	0.095718
10941		9.750879	0.221349	1.185035	0.142722	0.078027	0.002475	0.999998	0.001784	0.000975	0.000031	-0.086159	0.046535	0.995194	-0.535316	-0.844624	-0.006851	0.840246	-0.533333	0.097683
10942		9.637634	0.076482	1.228166	0.107173	0.050110	-0.013548	0.999999	0.001340	0.000626	-0.000169	-0.087208	0.047284	0.995067	-0.532970	-0.846109	-0.006504	0.841628	-0.530908	0.098988
10943		9.854713	0.122082	1.059259	0.111058	0.044788	-0.014145	0.999999	0.001388	0.000560	-0.000177	-0.088000	0.048165	0.994955	-0.530558	-0.847628	-0.005893	0.843068	-0.528400	0.100145
10944		9.871153	0.033251	1.181667	0.115690	0.050829	0.009572	0.999999	0.001446	0.000635	0.000120	-0.089288	0.048583	0.994820	-0.527965	-0.849245	-0.005913	0.844559	-0.525758	0.101478
10945		9.830948	0.127902	1.076463	0.119689	0.019268	0.015800	0.999999	0.001496	0.000241	0.000197	-0.090074	0.048373	0.994760	-0.525148	-0.850989	-0.006169	0.846231	-0.522951	0.102055
10946		9.814601	0.149150	0.970898	0.099848	0.016197	0.020807	0.999999	0.001248	0.000202	0.000260	-0.090964	0.048107	0.994692	-0.522860	-0.852393	-0.006591	0.847551	-0.520684	0.102691
10947		9.906052	0.135443	0.974733	0.084989	0.037410	0.023929	0.999999	0.001062	0.000468	0.000299	-0.092098	0.047966	0.994594	-0.520941	-0.853563	-0.007074	0.848610	-0.518776	0.103599
10948		9.777939	0.104432	1.179227	0.058483	0.021370	0.036034	1.000000	0.000731	0.000267	0.000450	-0.092913	0.047359	0.994547	-0.519596	-0.854376	-0.007857	0.849345	-0.517493	0.103990
10949		9.666945	0.094755	1.068362	0.047385	-0.013610	0.028887	1.000000	0.000592	-0.000170	0.000361	-0.092918	0.046538	0.994586	-0.518464	-0.855058	-0.008427	0.850036	-0.516440	0.103579
10950		9.746731	0.116789	1.052095	0.022649	-0.012014	0.011868	1.000000	0.000283	-0.000150	0.000148	-0.092775	0.046143	0.994617	-0.517947	-0.855369	-0.008630	0.850366	-0.515960	0.103257
10951		9.906053	0.073354	1.051980	-0.008729	-0.004524	0.009625	1.000000	-0.000109	-0.000057	0.000120	-0.092774	0.045769	0.994635	-0.518181	-0.855224	-0.008979	0.850224	-0.516234	0.103059
10952		9.893018	-0.002205	0.984959	-0.039785	-0.012102	0.006070	1.000000	-0.000497	-0.000151	0.000076	-0.092578	0.045435	0.994668	-0.518980	-0.854736	-0.009260	0.849758	-0.517070	0.102710
10953		9.881691	0.026618	1.034509	-0.049279	-0.004608	0.009891	1.000000	-0.000616	-0.000058	0.000124	-0.092670	0.045053	0.994677	-0.519967	-0.854130	-0.009756	0.849144	-0.518104	0.102578
10954		9.812972	-0.023819	1.051065	-0.078847	-0.027552	0.010263	0.999999	-0.000986	-0.000344	0.000128	-0.092222	0.044465	0.994745	-0.521495	-0.853193	-0.010210	0.848256	-0.519696	0.101872
10955		9.796555	0.028888	1.013553	-0.092103	-0.030057	-0.006265	0.999999	-0.001151	-0.000376	-0.000078	-0.091493	0.044287	0.994820	-0.523451	-0.851995	-0.010213	0.847129	-0.521674	0.101134
10956		9.866188	0.053138	0.968618	-0.122754	-0.006769	-0.008654	0.999999	-0.001534	-0.000085	-0.000108	-0.091229	0.044343	0.994842	-0.525901	-0.850483	-0.010317	0.845639	-0.524130	0.100909
10957		9.884694	-0.065444	1.007424	-0.145249	0.008624	-0.009413	0.999998	-0.001816	0.000108	-0.000118	-0.091449	0.044562	0.994812	-0.528776	-0.848695	-0.010591	0.843820	-0.527001	0.101176
10958		9.886821	-0.080888	0.897935	-0.146839	0.010812	-0.013434	0.999998	-0.001835	0.000135	-0.000168	-0.091570	0.044842	0.994789	-0.531720	-0.846852	-0.010771	0.841956	-0.529935	0.101389
10959		9.850428	-0.184208	0.966858	-0.134604	0.027861	-0.012019	0.999999	-0.001683	0.000348	-0.000150	-0.091882	0.045416	0.994734	-0.534519	-0.845088	-0.010789	0.840147	-0.532695	0.101924
10960		9.811328	-0.146419	0.918760	-0.096947	0.011511	-0.015645	0.999999	-0.001212	0.000144	-0.000196	-0.091848	0.045871	0.994716	-0.536355	-0.843926	-0.010607	0.838980	-0.534495	0.102116
10961		9.858264	-0.016738	0.860237	-0.090969	0.015894	-0.009263	0.999999	-0.001137	0.000199	-0.000116	-0.092250	0.046271	0.994660	-0.538090	-0.842820	-0.010698	0.837824	-0.536203	0.102648
10962		9.846551	-0.073917	0.950098	-0.093581	0.024515	0.001541	0.999999	-0.001170	0.000306	0.000019	-0.092805	0.046399	0.994603	-0.540188	-0.841470	-0.011149	0.836411	-0.538307	0.103157
10963		9.774878	-0.127273	0.949838	-0.079048	0.008738	-0.001151	1.000000	-0.000988	0.000109	-0.000014	-0.093033	0.046415	0.994581	-0.541791	-0.840435	-0.011458	0.835349	-0.539921	0.103336
10964		9.846003	-0.083672	0.949200	-0.061508	0.008960	-0.006691	1.000000	-0.000769	0.000112	-0.000084	-0.093085	0.046624	0.994566	-0.543017	-0.839644	-0.011462	0.834547	-0.541133	0.103475
10965		9.832463	0.022868	1.012063	-0.067020	0.021882	-0.007885	1.000000	-0.000838	0.000274	-0.000099	-0.093471	0.047040	0.994510	-0.544314	-0.838803	-0.011483	0.833658	-0.542399	0.104009
10966		9.789028	0.013677	0.997261	-0.064624	0.010079	-0.006082	1.000000	-0.000808	0.000126	-0.000076	-0.093640	0.047318	0.994481	-0.545619	-0.837955	-0.011505	0.832786	-0.543685	0.104284
10967		9.800202	0.011055	0.975089	-0.063700	0.012893	-0.006123	1.000000	-0.000796	0.000161	-0.000077	-0.093957	0.047688	0.994433	-0.546658	-0.837277	-0.011498	0.832068	-0.544696	0.104737
10968		9.791503	-0.064413	0.942203	-0.052849	0.000314	-0.010722	1.000000	-0.000661	0.000004	-0.000134	-0.093739	0.047794	0.994449	-0.547838	-0.836506	-0.011438	0.831316	-0.545869	0.104597
10969		9.769328	-0.005573	0.995865	-0.054653	0.006555	-0.011564	1.000000	-0.000683	0.000082	-0.000145	-0.093708	0.048109	0.994437	-0.548863	-0.835836	-0.011284	0.830643	-0.546867	0.104730
10970		9.785269	-0.005378	1.009860	-0.037342	-0.014677	-0.008327	1.000000	-0.000467	-0.000183	-0.000104	-0.093325	0.047911	0.994482	-0.549730	-0.835265	-0.011347	0.830113	-0.547756	0.104289
10971		9.860478	0.020578	0.955649	-0.057784	-0.003956	-0.005680	1.000000	-0.000722	-0.000049	-0.000071	-0.093257	0.047969	0.994486	-0.550857	-0.834522	-0.011403	0.829373	-0.548883	0.104249
10972		9.844426	0.009913	1.047083	-0.049874	-0.006379	-0.004590	1.000000	-0.000623	-0.000080	-0.000057	-0.093142	0.047908	0.994500	-0.551925	-0.833814	-0.011524	0.828676	-0.549962	0.104105
10973		9.794869	-0.024391	1.063046	-0.043509	-0.013168	0.004923	1.000000	-0.000544	-0.000165	0.000062	-0.093116	0.047789	0.994508	-0.552481	-0.833443	-0.011679	0.828308	-0.550534	0.104009
10974		9.753508	-0.024843	1.001093	-0.037565	-0.023573	0.008996	1.000000	-0.000470	-0.000295	0.000112	-0.093044	0.047295	0.994538	-0.553027	-0.833075	-0.012122	0.827951	-0.551134	0.103668
10975		9.826836	-0.045122	0.999693	-0.038723	-0.023261	0.003830	1.000000	-0.000484	-0.000291	0.000048	-0.092663	0.046978	0.994589	-0.553602	-0.832692	-0.012247	0.827610	-0.551741	0.103167
10976		9.900372	-0.111440	0.951095	-0.013838	-0.009542	-0.003335	1.000000	-0.000173	-0.000119	-0.000042	-0.092527	0.046902	0.994605	-0.553782	-0.832571	-0.012256	0.827505	-0.551928	0.103009
10977		9.852462	-0.078625	1.054140	-0.000754	-0.003111	-0.001768	1.000000	-0.000009	-0.000039	-0.000022	-0.092477	0.046726	0.994618	-0.553867	-0.832513	-0.012387	0.827453	-0.552032	0.102868
10978		9.840981	-0.009661	1.025231	-0.006824	-0.014471	0.002050	1.000000	-0.000085	-0.000181	0.000026	-0.092164	0.046448	0.994660	-0.553926	-0.832473	-0.012452	0.827449	-0.552115	0.102453
10979		9.813071	0.000670	0.968745	-0.007857	-0.022474	0.001749	1.000000	-0.000098	-0.000281	0.000022	-0.091885	0.045971	0.994708	-0.554037	-0.832395	-0.012709	0.827406	-0.552273	0.101954
10980		9.787597	-0.024661	1.014630	-0.002758	-0.021329	0.002937	1.000000	-0.000034	-0.000267	0.000037	-0.091666	0.045538	0.994748	-0.554036	-0.832392	-0.012949	0.827430	-0.552314	0.101532
10981		9.846867	0.042011	0.983522	-0.007158	-0.027783	0.005965	1.000000	-0.000089	-0.000347	0.000075	-0.091179	0.044946	0.994820	-0.554181	-0.832291	-0.013190	0.827387	-0.552513	0.100795
10982		9.807877	0.012368	0.908541	-0.015243	-0.023358	0.007504	1.000000	-0.000191	-0.000292	0.000094	-0.090914	0.044501	0.994864	-0.554346	-0.832178	-0.013434	0.827306	-0.552721	0.100325
10983		9.828947	-0.009963	0.937220	-0.024584	-0.019529	0.002280	1.000000	-0.000307	-0.000244	0.000029	-0.090675	0.044147	0.994902	-0.554742	-0.831911	-0.013644	0.827067	-0.553150	0.099923
10984		9.793281	-0.048896	0.942420	-0.022806	-0.018334	-0.000903	1.000000	-0.000285	-0.000229	-0.000011	-0.090181	0.043900	0.994957	-0.555173	-0.831623	-0.013627	0.826831	-0.553603	0.099368
10985		9.806392	-0.079676	0.953887	-0.016132	-0.018148	0.000873	1.000000	-0.000202	-0.000227	0.000011	-0.089877	0.043526	0.995001	-0.555444	-0.831440	-0.013801	0.826683	-0.553908	0.098904
10986		9.830226	-0.045749	0.889744	0.006530	-0.009163	0.002617	1.000000	0.000082	-0.000115	0.000033	-0.089792	0.043400	0.995014	-0.555137	-0.831644	-0.013823	0.826898	-0.553610	0.098768
10987		9.791884	-0.054246	0.909309	0.003369	-0.005446	0.002162	1.000000	0.000042	-0.000068	0.000027	-0.089738	0.043306	0.995023	-0.554917	-0.831791	-0.013844	0.827052	-0.553398	0.098675
10988		9.796722	-0.074021	0.926740	-0.001901	-0.007409	0.000320	1.000000	-0.000024	-0.000093	0.000004	-0.089650	0.043224	0.995035	-0.554775	-0.831885	-0.013847	0.827157	-0.553261	0.098558
10989		9.818522	-0.076150	0.926837	-0.002580	-0.010648	-0.002361	1.000000	-0.000032	-0.000133	-0.000030	-0.089500	0.043186	0.995050	-0.554629	-0.831984	-0.013777	0.827270	-0.553117	0.098415
10990		9.824297	-0.056225	0.933457	-0.007682	-0.003995	-0.003283	1.000000	-0.000096	-0.000050	-0.000041	-0.089391	0.043161	0.995061	-0.554710	-0.831930	-0.013747	0.827228	-0.553199	0.098309
10991		9.842584	-0.059521	0.964844	-0.010134	0.004319	-0.005512	1.000000	-0.000127	0.000054	-0.000069	-0.089416	0.043258	0.995055	-0.554926	-0.831786	-0.013706	0.827080	-0.553408	0.098380
10992		9.818580	-0.039418	0.960565	-0.000742	0.000040	-0.005488	1.000000	-0.000009	0.000001	-0.000069	-0.089317	0.043407	0.995057	-0.554873	-0.831825	-0.013520	0.827126	-0.553338	0.098382
10993		9.859208	-0.012819	0.978203	-0.003463	0.012320	-0.003497	1.000000	-0.000043	0.000154	-0.000044	-0.089488	0.043643	0.995031	-0.554867	-0.831831	-0.013417	0.827112	-0.553311	0.098655
10994		9.789055	-0.077993	1.031184	-0.002821	0.010288	-0.002099	1.000000	-0.000035	0.000129	-0.000026	-0.089754	0.043772	0.995002	-0.554878	-0.831823	-0.013459	0.827076	-0.553312	0.098948
10995		9.803417	-0.057796	0.999928	-0.002823	0.005335	0.000888	1.000000	-0.000035	0.000067	0.000011	-0.089928	0.043803	0.994985	-0.554846	-0.831843	-0.013527	0.827078	-0.553280	0.099110
10996		9.833724	-0.046005	0.976779	-0.009396	0.012079	0.000229	1.000000	-0.000117	0.000151	0.000003	-0.090178	0.044023	0.994952	-0.554865	-0.831831	-0.013485	0.827038	-0.553281	0.099440
10997		9.884625	-0.055005	0.987904	-0.010563	0.008524	0.000543	1.000000	-0.000132	0.000107	0.000007	-0.090487	0.044200	0.994916	-0.554883	-0.831818	-0.013512	0.826992	-0.553285	0.099795
10998		9.869317	-0.028805	0.951805	-0.004453	0.018429	0.000255	1.000000	-0.000056	0.000230	0.000003	-0.090829	0.044529	0.994870	-0.554780	-0.831889	-0.013416	0.827024	-0.553153	0.100263
10999		9.733214	-0.112725	1.023833	0.006870	0.017968	-0.001500	1.000000	0.000086	0.000225	-0.000019	-0.091171	0.044768	0.994828	-0.554613	-0.832000	-0.013386	0.827098	-0.552966	0.100684
11000		9.757812	-0.112486	1.000623	0.025825	0.010230	-0.000771	1.000000	0.000323	0.000128	-0.000010	-0.091481	0.044979	0.994790	-0.553985	-0.832420	-0.013307	0.827485	-0.552316	0.101068
11001		9.821097	-0.096856	0.961537	0.019199	0.004641	-0.004744	1.000000	0.000240	0.000058	-0.000059	-0.091650	0.045013	0.994773	-0.553535	-0.832719	-0.013318	0.827768	-0.551863	0.101235
11002		9.837891	-0.077378	0.946376	0.028392	0.007035	-0.009396	1.000000	0.000355	0.000088	-0.000117	-0.091687	0.045198	0.994762	-0.553019	-0.833066	-0.013120	0.828109	-0.551325	0.101376
11003		9.859146	-0.049674	0.978675	0.024754	0.008631	-0.007586	1.000000	0.000309	0.000108	-0.000095	-0.091933	0.045461	0.994727	-0.552466	-0.833434	-0.012970	0.828450	-0.550746	0.101736
11004		9.854240	-0.014172	0.975255	0.024375	0.004595	-0.006970	1.000000	0.000305	0.000057	-0.000087	-0.092063	0.045689	0.994704	-0.551810	-0.833872	-0.012770	0.828873	-0.550064	0.101981
11005		9.774995	-0.065898	0.960792	0.021229	0.006507	-0.008160	1.000000	0.000265	0.000081	-0.000102	-0.092246	0.045902	0.994678	-0.551399	-0.834146	-0.012643	0.829126	-0.549630	0.102257
11006		9.862078	-0.033956	0.961143	0.019180	0.005354	-0.006493	1.000000	0.000240	0.000067	-0.000081	-0.092282	0.046051	0.994667	-0.550981	-0.834424	-0.012486	0.829400	-0.549195	0.102376
11007		9.845680	0.009895	0.990210	0.004923	0.012020	-0.004735	1.000000	0.000062	0.000150	-0.000059	-0.092508	0.046353	0.994632	-0.550803	-0.834544	-0.012336	0.829493	-0.548988	0.102733
11008		9.835660	-0.069396	1.004193	-0.009589	0.016939	-0.005237	1.000000	-0.000120	0.000212	-0.000065	-0.092792	0.046668	0.994591	-0.550918	-0.834470	-0.012244	0.829385	-0.549074	0.103142
11009		9.813755	-0.072509	0.998607	-0.009576	0.014078	-0.008469	1.000000	-0.000120	0.000176	-0.000106	-0.092988	0.046931	0.994561	-0.551150	-0.834317	-0.012161	0.829208	-0.549283	0.103448
11010		9.789528	-0.059208	0.989844	-0.022334	0.012106	-0.005447	1.000000	-0.000279	0.000151	-0.000068	-0.093135	0.047169	0.994536	-0.551574	-0.834038	-0.012096	0.828910	-0.549686	0.103695
11011		9.841702	-0.069255	0.948149	-0.019982	0.004667	-0.004063	1.000000	-0.000250	0.000058	-0.000051	-0.093291	0.047384	0.994511	-0.551795	-0.833893	-0.012030	0.828745	-0.549889	0.103941
11012		9.841520	-0.055063	0.962716	-0.017420	0.000446	-0.003961	1.000000	-0.000218	0.000006	-0.000050	-0.093249	0.047442	0.994512	-0.552110	-0.833685	-0.011998	0.828540	-0.550199	0.103934
11013		9.831379	-0.054590	0.934951	-0.013736	-0.002632	-0.002221	1.000000	-0.000172	-0.000033	-0.000028	-0.093289	0.047403	0.994510	-0.552378	-0.833506	-0.012086	0.828357	-0.550473	0.103942
11014		9.823597	-0.063759	0.916377	-0.010464	-0.002263	-0.003891	1.000000	-0.000131	-0.000028	-0.000049	-0.093213	0.047412	0.994517	-0.552531	-0.833405	-0.012056	0.828263	-0.550625	0.103881
11015		9.798734	-0.069109	0.935087	-0.006203	-0.005153	-0.006063	1.000000	-0.000078	-0.000064	-0.000076	-0.093110	0.047419	0.994526	-0.552613	-0.833352	-0.012003	0.828221	-0.550705	0.103798
11016		9.809043	-0.067697	0.961313	-0.002579	-0.004959	-0.007127	1.000000	-0.000032	-0.000062	-0.000089	-0.092890	0.047527	0.994541	-0.552541	-0.833403	-0.011781	0.828294	-0.550619	0.103676
11017		9.831648	-0.036167	0.944998	-0.000859	-0.004369	-0.007627	1.000000	-0.000011	-0.000055	-0.000095	-0.092810	0.047570	0.994547	-0.552496	-0.833433	-0.011695	0.828332	-0.550569	0.103633
11018		9.820377	-0.039171	0.962462	-0.008083	-0.000557	-0.006709	1.000000	-0.000101	-0.000007	-0.000084	-0.092716	0.047658	0.994551	-0.552636	-0.833342	-0.011586	0.828249	-0.550699	0.103601
11019		9.806987	-0.059587	0.942924	-0.010093	-0.000360	-0.009498	1.000000	-0.000126	-0.000005	-0.000119	-0.092768	0.047811	0.994539	-0.552808	-0.833229	-0.011509	0.828129	-0.550857	0.103727
11020		9.814983	-0.061735	0.946815	-0.007399	-0.000175	-0.007261	1.000000	-0.000092	-0.000002	-0.000091	-0.092863	0.048072	0.994518	-0.552784	-0.833247	-0.011339	0.828134	-0.550806	0.103952
11021		9.826104	-0.042055	0.943585	-0.009215	0.007151	-0.005583	1.000000	-0.000115	0.000089	-0.000070	-0.093100	0.048299	0.994485	-0.552856	-0.833200	-0.011291	0.828060	-0.550858	0.104273
11022		9.871694	-0.068252	0.944756	-0.000835	-0.000165	-0.008837	1.000000	-0.000010	-0.000002	-0.000110	-0.093021	0.048413	0.994486	-0.552822	-0.833225	-0.011147	0.828091	-0.550811	0.104272
11023		9.861797	0.013417	0.949538	-0.000477	0.006716	-0.006202	1.000000	-0.000006	0.000084	-0.000078	-0.093147	0.048561	0.994467	-0.552752	-0.833272	-0.011084	0.828124	-0.550726	0.104459
11024		9.754415	-0.054675	0.976565	-0.007808	0.005383	-0.005658	1.000000	-0.000098	0.000067	-0.000071	-0.093297	0.048701	0.994447	-0.552879	-0.833188	-0.011066	0.828022	-0.550841	0.104660
11025		9.770433	-0.074964	0.971525	0.005548	0.002951	-0.005342	1.000000	0.000069	0.000037	-0.000067	-0.093234	0.048853	0.994445	-0.552697	-0.833311	-0.010881	0.828151	-0.550641	0.104694
11026		9.835895	-0.034718	0.975311	-0.002509	-0.002233	-0.004803	1.000000	-0.000031	-0.000028	-0.000060	-0.093285	0.048764	0.994445	-0.552753	-0.833273	-0.010991	0.828108	-0.550707	0.104687
11027		9.828235	-0.043417	0.955715	-0.003504	-0.010973	-0.003352	1.000000	-0.000044	-0.000137	-0.000042	-0.093176	0.048709	0.994457	-0.552724	-0.833292	-0.010973	0.828139	-0.550683	0.104566
11028		9.832788	-0.028093	1.007397	-0.001557	-0.007900	-0.003359	1.000000	-0.000019	-0.000099	-0.000042	-0.093045	0.048617	0.994474	-0.552686	-0.833317	-0.010972	0.828179	-0.550653	0.104406
11029		9.845570	-0.031504	0.928242	0.000308	-0.004702	-0.002452	1.000000	0.000004	-0.000059	-0.000031	-0.092965	0.048560	0.994484	-0.552566	-0.833397	-0.010960	0.828269	-0.550537	0.104309
11030		9.803949	-0.068379	0.950124	-0.001678	0.001815	-0.001445	1.000000	-0.000021	0.000023	-0.000018	-0.092876	0.048660	0.994488	-0.552538	-0.833417	-0.010823	0.828297	-0.550498	0.104291
11031		9.816152	-0.050312	1.015476	0.002896	0.001289	-0.004045	1.000000	0.000036	0.000016	-0.000051	-0.092893	0.048691	0.994485	-0.552422	-0.833494	-0.010792	0.828372	-0.550378	0.104324
11032		9.820473	-0.022037	0.962028	0.003952	-0.000298	-0.004728	1.000000	0.000049	-0.000004	-0.000059	-0.092854	0.048808	0.994483	-0.552288	-0.833586	-0.010656	0.828466	-0.550230	0.104358
11033		9.830949	-0.048317	0.961772	-0.003089	0.002519	-0.003871	1.000000	-0.000039	0.000031	-0.000048	-0.092821	0.048864	0.994483	-0.552307	-0.833573	-0.010592	0.828457	-0.550243	0.104361
11034		9.824201	-0.045575	0.905150	-0.001700	-0.003448	-0.002737	1.000000	-0.000021	-0.000043	-0.000034	-0.092751	0.048861	0.994490	-0.552262	-0.833604	-0.010550	0.828495	-0.550197	0.104302
11035		9.803972	-0.064307	0.950170	0.001056	-0.001587	-0.000683	1.000000	0.000013	-0.000020	-0.000009	-0.092763	0.048869	0.994488	-0.552159	-0.833672	-0.010537	0.828562	-0.550093	0.104317
11036		9.812037	-0.067825	0.953337	0.008966	-0.005005	-0.002157	1.000000	0.000112	-0.000063	-0.000027	-0.092752	0.048729	0.994496	-0.551961	-0.833802	-0.010623	0.828695	-0.549909	0.104233
11037		9.836797	-0.033717	0.960217	0.009880	-0.007081	0.000758	1.000000	0.000123	-0.000089	0.000009	-0.092576	0.048591	0.994519	-0.551725	-0.833959	-0.010611	0.828873	-0.549683	0.104013
11038		9.831363	-0.039540	0.963839	0.006878	-0.008569	0.001452	1.000000	0.000086	-0.000107	0.000018	-0.092461	0.048440	0.994537	-0.551484	-0.834117	-0.010644	0.829045	-0.549456	0.103837
11039		9.793043	-0.048062	0.982969	0.002902	-0.008594	0.001912	1.000000	0.000036	-0.000107	0.000024	-0.092354	0.048282	0.994555	-0.551322	-0.834224	-0.010697	0.829165	-0.549308	0.103663
11040		9.818302	-0.055697	0.947321	0.000210	-0.007724	0.002181	1.000000	0.000003	-0.000097	0.000027	-0.092326	0.048124	0.994565	-0.551226	-0.834286	-0.010802	0.829232	-0.549228	0.103553
11041		9.850483	-0.072007	0.960771	0.001038	-0.011796	0.001010	1.000000	0.000013	-0.000147	0.000013	-0.092106	0.047924	0.994595	-0.551119	-0.834356	-0.010834	0.829328	-0.549138	0.103261
11042		9.824389	-0.043687	0.943123	-0.001261	-0.014697	0.000417	1.000000	-0.000016	-0.000184	0.000005	-0.091873	0.047610	0.994632	-0.551088	-0.834375	-0.010965	0.829374	-0.549137	0.102893
11043		9.822326	-0.041022	0.924046	-0.013232	-0.006232	0.000292	1.000000	-0.000165	-0.000078	0.000004	-0.091762	0.047400	0.994652	-0.551336	-0.834209	-0.011110	0.829221	-0.549407	0.102682
11044		9.836291	-0.059687	0.899704	-0.009509	-0.007956	-0.002425	1.000000	-0.000119	-0.000099	-0.000030	-0.091702	0.047258	0.994665	-0.551492	-0.834105	-0.011215	0.829124	-0.549578	0.102551
11045		9.788808	-0.061728	0.968297	-0.015638	-0.002271	-0.001627	1.000000	-0.000195	-0.000028	-0.000020	-0.091704	0.047303	0.994662	-0.551712	-0.833960	-0.011205	0.828978	-0.549794	0.102575
11046		9.835931	-0.111815	0.893725	-0.000332	-0.007626	-0.000863	1.000000	-0.000004	-0.000095	-0.000011	-0.091537	0.047045	0.994690	-0.551742	-0.833938	-0.011333	0.828977	-0.549849	0.102293
11047		9.861989	-0.085243	0.962601	0.009293	-0.004447	-0.003326	1.000000	0.000116	-0.000056	-0.000042	-0.091391	0.046997	0.994705	-0.551525	-0.834082	-0.011265	0.829137	-0.549635	0.102148
11048		9.869124	-0.007982	0.928685	0.003602	0.001999	-0.000336	1.000000	0.000045	0.000025	-0.000004	-0.091496	0.046996	0.994696	-0.551358	-0.834192	-0.011304	0.829236	-0.549468	0.102237
11049		9.791647	-0.097347	0.947880	-0.005199	0.006758	-0.000002	1.000000	-0.000065	0.000084	-0.000000	-0.091612	0.047099	0.994680	-0.551352	-0.834196	-0.011281	0.829227	-0.549453	0.102391
11050		9.774899	-0.128034	0.951025	0.006687	-0.002642	-0.001468	1.000000	0.000084	-0.000033	-0.000018	-0.091573	0.047085	0.994685	-0.551173	-0.834315	-0.011248	0.829351	-0.549273	0.102353
11051		9.813122	-0.077816	0.970615	0.016663	-0.006707	-0.005345	1.000000	0.000208	-0.000084	-0.000067	-0.091301	0.046983	0.994714	-0.550866	-0.834519	-0.011145	0.829585	-0.548972	0.102074
11052		9.839018	-0.045192	0.924606	0.016469	-0.007808	0.000937	1.000000	0.000206	-0.000098	0.000012	-0.091081	0.046773	0.994745	-0.550514	-0.834752	-0.011156	0.829843	-0.548637	0.101779
11053		9.847176	-0.049129	0.926824	0.003296	-0.006366	0.000573	1.000000	0.000041	-0.000080	0.000007	-0.091032	0.046515	0.994761	-0.550505	-0.834755	-0.011344	0.829854	-0.548654	0.101597
11054		9.838689	-0.097399	0.918543	0.008572	-0.001242	-0.001299	1.000000	0.000107	-0.000016	-0.000016	-0.091113	0.046523	0.994753	-0.550184	-0.834966	-0.011344	0.830058	-0.548331	0.101672
11055		9.818504	-0.115960	0.964582	0.020191	0.003534	-0.000242	1.000000	0.000252	0.000044	-0.000003	-0.091267	0.046556	0.994738	-0.549704	-0.835283	-0.011342	0.830359	-0.547846	0.101826
11056		9.837410	-0.073951	0.992304	0.023346	-0.004385	0.001436	1.000000	0.000292	-0.000055	0.000018	-0.091300	0.046367	0.994743	-0.549203	-0.835611	-0.011457	0.830687	-0.547362	0.101756
11057		9.828086	-0.048537	0.939143	0.020239	-0.005014	0.001284	1.000000	0.000253	-0.000063	0.000016	-0.091230	0.046224	0.994756	-0.548741	-0.835914	-0.011482	0.831000	-0.546911	0.101626
11058		9.852091	-0.053186	0.957217	0.011512	-0.001437	-0.001807	1.000000	0.000144	-0.000018	-0.000023	-0.091261	0.046162	0.994756	-0.548496	-0.836074	-0.011522	0.831158	-0.546672	0.101621
11059		9.813865	-0.088104	0.950617	0.002046	0.001150	-0.001664	1.000000	0.000026	0.000014	-0.000021	-0.091402	0.046175	0.994743	-0.548367	-0.836157	-0.011573	0.831227	-0.546542	0.101747
11060		9.821968	-0.097922	0.947224	0.011527	-0.004303	-0.005036	1.000000	0.000144	-0.000054	-0.000063	-0.091296	0.046149	0.994754	-0.548100	-0.836334	-0.011504	0.831415	-0.546275	0.101649
11061		9.797778	-0.057514	0.962866	0.011821	0.000919	-0.002235	1.000000	0.000148	0.000011	-0.000028	-0.091314	0.046196	0.994750	-0.547813	-0.836523	-0.011438	0.831602	-0.545982	0.101693
11062		9.847412	-0.030612	0.937193	0.002197	-0.002245	0.000226	1.000000	0.000027	-0.000028	0.000003	-0.091325	0.046094	0.994754	-0.547723	-0.836580	-0.011520	0.831661	-0.545902	0.101647
11063		9.822803	-0.057533	0.935210	-0.005654	-0.004209	-0.000498	1.000000	-0.000071	-0.000053	-0.000006	-0.091303	0.045931	0.994763	-0.547857	-0.836490	-0.011661	0.831574	-0.546053	0.101537
11064		9.796030	-0.095079	0.902230	-0.004765	-0.006614	-0.001844	1.000000	-0.000060	-0.000083	-0.000023	-0.091268	0.045753	0.994775	-0.547921	-0.836447	-0.011799	0.831536	-0.546135	0.101410
11065		9.822106	-0.068510	0.971419	-0.004229	-0.001771	-0.001791	1.000000	-0.000053	-0.000022	-0.000022	-0.091229	0.045687	0.994781	-0.547977	-0.836409	-0.011840	0.831504	-0.546198	0.101340
11066		9.835885	-0.073190	0.961648	-0.000249	-0.007758	-0.001761	1.000000	-0.000003	-0.000097	-0.000022	-0.091080	0.045562	0.994801	-0.547951	-0.836426	-0.011859	0.831537	-0.546183	0.101148
11067		9.798595	-0.076620	0.935458	-0.004199	-0.008512	0.000470	1.000000	-0.000052	-0.000106	0.000006	-0.090915	0.045364	0.994825	-0.548016	-0.836383	-0.011943	0.831512	-0.546266	0.100900
11068		9.831628	-0.067373	0.924144	0.000771	-0.011759	-0.000487	1.000000	0.000010	-0.000147	-0.000006	-0.090820	0.045164	0.994843	-0.547916	-0.836446	-0.012047	0.831588	-0.546185	0.100713
11069		9.834382	-0.097150	0.910828	-0.001270	-0.003760	-0.003033	1.000000	-0.000016	-0.000047	-0.000038	-0.090742	0.045105	0.994852	-0.547942	-0.836429	-0.012056	0.831580	-0.546216	0.100614
11070		9.815136	-0.083522	0.937821	0.007248	-0.005617	-0.001647	1.000000	0.000091	-0.000070	-0.000021	-0.090649	0.045042	0.994864	-0.547711	-0.836581	-0.012031	0.831742	-0.545989	0.100505
11071		9.833779	-0.114164	0.940125	0.005919	-0.003977	-0.002489	1.000000	0.000074	-0.000050	-0.000031	-0.090562	0.045024	0.994873	-0.547526	-0.836703	-0.011975	0.831874	-0.545803	0.100425
11072		9.839376	-0.093685	0.947456	0.007984	-0.004628	-0.004884	1.000000	0.000100	-0.000058	-0.000061	-0.090528	0.044979	0.994878	-0.547334	-0.836829	-0.011971	0.832004	-0.545614	0.100375
11073		9.891991	-0.016211	0.940249	0.009747	-0.006573	-0.004349	1.000000	0.000122	-0.000082	-0.000054	-0.090385	0.044892	0.994895	-0.547107	-0.836977	-0.011937	0.832168	-0.545393	0.100211
11074		9.837769	-0.056834	0.913049	-0.015386	0.015717	-0.001582	1.000000	-0.000192	0.000196	-0.000020	-0.090728	0.045080	0.994855	-0.547376	-0.836801	-0.012001	0.831954	-0.545648	0.100597
11075		9.740148	-0.157910	0.987025	-0.001155	0.005594	-0.003895	1.000000	-0.000014	0.000070	-0.000049	-0.090808	0.045107	0.994846	-0.547426	-0.836768	-0.012029	0.831913	-0.545697	0.100678
11076		9.779279	-0.116377	0.948353	0.001619	-0.002482	-0.007082	1.000000	0.000020	-0.000031	-0.000089	-0.090603	0.045223	0.994860	-0.547368	-0.836809	-0.011812	0.831973	-0.545625	0.100571
11077		9.807250	-0.072339	0.933224	0.001004	-0.007200	-0.006218	1.000000	0.000013	-0.000090	-0.000078	-0.090396	0.045214	0.994879	-0.547330	-0.836835	-0.011699	0.832021	-0.545584	0.100394
11078		9.867748	-0.092293	0.883909	0.008534	-0.011799	-0.003844	1.000000	0.000107	-0.000147	-0.000048	-0.090152	0.045065	0.994908	-0.547094	-0.836990	-0.011662	0.832203	-0.545359	0.100111
11079		9.867970	-0.091630	0.881499	0.009723	-0.007911	0.000103	1.000000	0.000122	-0.000099	0.000001	-0.090104	0.045018	0.994914	-0.546706	-0.837244	-0.011629	0.832462	-0.544973	0.100051
11080		9.802462	-0.110006	0.898687	0.004095	0.003368	-0.000835	1.000000	0.000051	0.000042	-0.000010	-0.090162	0.044940	0.994913	-0.546647	-0.837281	-0.011719	0.832495	-0.544923	0.100057
11081		9.847932	-0.103081	0.933731	0.001157	-0.003522	-0.002321	1.000000	0.000014	-0.000044	-0.000029	-0.090053	0.044895	0.994925	-0.546566	-0.837334	-0.011687	0.832560	-0.544845	0.099943
11082		9.821370	-0.060625	0.932669	-0.006133	-0.001378	-0.001221	1.000000	-0.000077	-0.000017	-0.000015	-0.090066	0.044823	0.994927	-0.546657	-0.837274	-0.011766	0.832499	-0.544943	0.099913
11083		9.828893	-0.109679	0.939563	-0.012086	-0.004813	-0.004998	1.000000	-0.000151	-0.000060	-0.000062	-0.089987	0.044819	0.994934	-0.546833	-0.837160	-0.011746	0.832392	-0.545119	0.099842
11084		9.846013	-0.118584	0.893554	-0.003513	-0.006062	-0.006295	1.000000	-0.000044	-0.000076	-0.000079	-0.089799	0.044814	0.994951	-0.546881	-0.837129	-0.011653	0.832381	-0.545166	0.099681
11085		9.807715	-0.118821	0.920269	-0.006238	-0.007598	-0.004073	1.000000	-0.000078	-0.000095	-0.000051	-0.089647	0.044690	0.994970	-0.547014	-0.837042	-0.011689	0.832310	-0.545310	0.099484
11086		9.819088	-0.106642	0.906923	0.003425	-0.010103	-0.001787	1.000000	0.000043	-0.000126	-0.000022	-0.089430	0.044495	0.994999	-0.546933	-0.837094	-0.011724	0.832386	-0.545247	0.099197
11087		9.822368	-0.076698	0.903184	0.004454	-0.010964	-0.004232	1.000000	0.000056	-0.000137	-0.000053	-0.089243	0.044392	0.995020	-0.546761	-0.837207	-0.011687	0.832519	-0.545081	0.098986
11088		9.827434	-0.088324	0.926684	-0.001613	-0.009603	-0.003137	1.000000	-0.000020	-0.000120	-0.000039	-0.089111	0.044305	0.995036	-0.546714	-0.837238	-0.011682	0.832564	-0.545041	0.098829
11089		9.819152	-0.128980	0.923726	0.001615	-0.012709	-0.005356	1.000000	0.000020	-0.000159	-0.000067	-0.088886	0.044204	0.995060	-0.546636	-0.837290	-0.011634	0.832640	-0.544970	0.098587
11090		9.820040	-0.088484	0.909918	-0.004301	-0.012674	-0.008584	1.000000	-0.000054	-0.000158	-0.000107	-0.088502	0.044173	0.995096	-0.546693	-0.837255	-0.011456	0.832643	-0.545026	0.098248
11091		9.817935	-0.083577	0.890385	-0.004054	-0.011990	-0.008829	1.000000	-0.000051	-0.000150	-0.000110	-0.088121	0.044137	0.995131	-0.546790	-0.837194	-0.011288	0.832620	-0.545123	0.097908
11092		9.828587	-0.081423	0.915020	0.000334	-0.010468	-0.008877	1.000000	0.000004	-0.000131	-0.000111	-0.087876	0.044164	0.995152	-0.546743	-0.837226	-0.011124	0.832676	-0.545070	0.097718
11093		9.820179	-0.100940	0.933135	0.002632	-0.010703	-0.004575	1.000000	0.000033	-0.000134	-0.000057	-0.087617	0.044135	0.995176	-0.546590	-0.837328	-0.010988	0.832804	-0.544916	0.097487
11094		9.810016	-0.092692	0.909880	0.005237	-0.012519	-0.006425	1.000000	0.000065	-0.000156	-0.000080	-0.087331	0.044049	0.995205	-0.546446	-0.837424	-0.010886	0.832929	-0.544777	0.097203
11095		9.821431	-0.079356	0.895634	0.003491	-0.012382	-0.007684	1.000000	0.000044	-0.000155	-0.000096	-0.086943	0.044032	0.995240	-0.546353	-0.837487	-0.010676	0.833030	-0.544680	0.096870
11096		9.840749	-0.063208	0.893037	0.000813	-0.006227	-0.006145	1.000000	0.000010	-0.000078	-0.000077	-0.086824	0.043962	0.995253	-0.546320	-0.837509	-0.010665	0.833064	-0.544653	0.096733
11097		9.836215	-0.090077	0.824243	-0.000050	-0.001410	-0.006755	1.000000	-0.000001	-0.000018	-0.000084	-0.086766	0.044001	0.995257	-0.546304	-0.837520	-0.010599	0.833081	-0.544632	0.096706
11098		9.883552	-0.096060	0.914163	0.012809	0.000806	-0.006477	1.000000	0.000160	0.000010	-0.000081	-0.086786	0.044057	0.995252	-0.546036	-0.837695	-0.010532	0.833254	-0.544358	0.096757
11099		9.816725	-0.046418	0.880793	0.005084	0.003247	-0.005057	1.000000	0.000064	0.000041	-0.000063	-0.086799	0.044174	0.995246	-0.545899	-0.837786	-0.010425	0.833343	-0.544209	0.096834
11100		9.761963	-0.097929	0.891150	0.010489	-0.004515	-0.005095	1.000000	0.000131	-0.000056	-0.000064	-0.086628	0.044150	0.995262	-0.545643	-0.837954	-0.010321	0.833528	-0.543952	0.096681
11101		9.805369	-0.107047	0.887579	0.013910	-0.004402	-0.008602	1.000000	0.000174	-0.000055	-0.000108	-0.086465	0.044232	0.995273	-0.545343	-0.838152	-0.010128	0.833741	-0.543641	0.096592
11102		9.829592	-0.116452	0.898357	0.014512	-0.003892	-0.008242	1.000000	0.000181	-0.000049	-0.000103	-0.086346	0.044253	0.995282	-0.545006	-0.838373	-0.010006	0.833974	-0.543298	0.096508
11103		9.824594	-0.074216	0.898961	0.015680	-0.006351	-0.008062	1.000000	0.000196	-0.000079	-0.000101	-0.086173	0.044237	0.995298	-0.544685	-0.838582	-0.009887	0.834201	-0.542976	0.096358
11104		9.827370	-0.095539	0.892788	0.015221	-0.008458	-0.005795	1.000000	0.000190	-0.000106	-0.000072	-0.086002	0.044204	0.995314	-0.544319	-0.838822	-0.009779	0.834459	-0.542609	0.096201
11105		9.819672	-0.110301	0.866114	0.017182	-0.007181	-0.006548	1.000000	0.000215	-0.000090	-0.000082	-0.085782	0.044181	0.995334	-0.543946	-0.839065	-0.009635	0.834724	-0.542234	0.096008
11106		9.852352	-0.078378	0.876739	0.017461	-0.003016	-0.006260	1.000000	0.000218	-0.000038	-0.000078	-0.085656	0.044210	0.995343	-0.543565	-0.839313	-0.009498	0.834985	-0.541847	0.095923
11107		9.817685	-0.037326	0.864356	0.006585	-0.005759	-0.008018	1.000000	0.000082	-0.000072	-0.000100	-0.085407	0.044251	0.995363	-0.543414	-0.839413	-0.009310	0.835109	-0.541690	0.095738
11108		9.836631	-0.079803	0.852431	0.004750	-0.006571	-0.010854	1.000000	0.000059	-0.000082	-0.000136	-0.085192	0.044343	0.995377	-0.543280	-0.839502	-0.009099	0.835218	-0.541544	0.095610
11109		9.806368	-0.068549	0.897539	0.004695	-0.004037	-0.011898	1.000000	0.000059	-0.000050	-0.000149	-0.085012	0.044417	0.995389	-0.543178	-0.839570	-0.008926	0.835303	-0.541433	0.095500
11110		9.806592	-0.079340	0.882606	0.006877	-0.004478	-0.010944	1.000000	0.000086	-0.000056	-0.000137	-0.084807	0.044512	0.995403	-0.543005	-0.839684	-0.008715	0.835436	-0.541248	0.095382
11111		9.842307	-0.045042	0.864773	0.004135	0.000008	-0.009231	1.000000	0.000052	0.000000	-0.000115	-0.084751	0.044625	0.995402	-0.542897	-0.839755	-0.008576	0.835512	-0.541128	0.095397
11112		9.817746	-0.062778	0.870721	-0.001753	-0.000699	-0.010685	1.000000	-0.000022	-0.000009	-0.000134	-0.084640	0.044836	0.995402	-0.542876	-0.839771	-0.008335	0.835537	-0.541086	0.095419
11113		9.828376	-0.080697	0.877438	-0.000932	0.002308	-0.009856	1.000000	-0.000012	0.000029	-0.000123	-0.084613	0.044994	0.995398	-0.542851	-0.839789	-0.008184	0.835556	-0.541045	0.095482
11114		9.825758	-0.061578	0.875436	-0.003035	0.002613	-0.011719	1.000000	-0.000038	0.000033	-0.000146	-0.084505	0.045220	0.995396	-0.542909	-0.839754	-0.007941	0.835529	-0.541080	0.095513
11115		9.812231	-0.067598	0.870529	-0.005839	0.000131	-0.011069	1.000000	-0.000073	0.000002	-0.000138	-0.084364	0.045486	0.995396	-0.542975	-0.839714	-0.007648	0.835501	-0.541120	0.095539
11116		9.822585	-0.058127	0.905373	-0.006679	0.004220	-0.009921	1.000000	-0.000083	0.000053	-0.000124	-0.084339	0.045634	0.995392	-0.543122	-0.839620	-0.007526	0.835407	-0.541254	0.095597
11117		9.812192	-0.062485	0.871350	-0.000368	-0.001744	-0.012515	1.000000	-0.000005	-0.000022	-0.000156	-0.084168	0.045837	0.995397	-0.543124	-0.839621	-0.007262	0.835424	-0.541235	0.095565
11118		9.836376	-0.071593	0.883075	0.000571	0.001485	-0.008343	1.000000	0.000007	0.000019	-0.000104	-0.084186	0.045949	0.995390	-0.543086	-0.839647	-0.007172	0.835446	-0.541186	0.095641
11119		9.839261	-0.047135	0.875325	-0.002402	0.002395	-0.009591	1.000000	-0.000030	0.000030	-0.000120	-0.084150	0.046092	0.995387	-0.543150	-0.839606	-0.007040	0.835408	-0.541236	0.095687
11120		9.804181	-0.058209	0.861295	-0.001262	0.000666	-0.011176	1.000000	-0.000016	0.000008	-0.000140	-0.084057	0.046243	0.995387	-0.543193	-0.839580	-0.006866	0.835390	-0.541264	0.095691
11121		9.806455	-0.044504	0.892302	-0.002982	0.004280	-0.011902	1.000000	-0.000037	0.000054	-0.000149	-0.084054	0.046469	0.995377	-0.543263	-0.839536	-0.006682	0.835344	-0.541313	0.095811
11122		9.849934	-0.072876	0.870199	0.000689	0.006155	-0.013163	1.000000	0.000009	0.000077	-0.000165	-0.084087	0.046812	0.995358	-0.543202	-0.839578	-0.006404	0.835381	-0.541219	0.096025
11123		9.863074	-0.033079	0.903807	0.005918	-0.001693	-0.015614	1.000000	0.000074	-0.000021	-0.000195	-0.083845	0.047023	0.995369	-0.543109	-0.839640	-0.006083	0.835466	-0.541104	0.095938
11124		9.837248	0.034939	0.826400	-0.001513	0.004182	-0.012156	1.000000	-0.000019	0.000052	-0.000152	-0.083781	0.047304	0.995361	-0.543146	-0.839618	-0.005815	0.835448	-0.541113	0.096038
11125		9.784906	-0.057019	0.865751	-0.002766	0.006765	-0.011424	1.000000	-0.000035	0.000085	-0.000143	-0.083853	0.047611	0.995340	-0.543158	-0.839612	-0.005597	0.835433	-0.541096	0.096264
11126		9.811604	-0.075230	0.887704	0.006119	-0.001603	-0.013181	1.000000	0.000076	-0.000020	-0.000165	-0.083674	0.047812	0.995346	-0.543010	-0.839710	-0.005312	0.835547	-0.540927	0.096224
11127		9.816852	-0.045615	0.903010	0.005707	0.002181	-0.012341	1.000000	0.000071	0.000027	-0.000154	-0.083587	0.048046	0.995342	-0.542869	-0.839802	-0.005051	0.835647	-0.540763	0.096280
11128		9.859719	-0.019213	0.935658	0.005062	0.001071	-0.010019	1.000000	0.000063	0.000013	-0.000125	-0.083516	0.048259	0.995337	-0.542742	-0.839886	-0.004818	0.835737	-0.540613	0.096336
11129		9.849357	-0.023657	0.901689	0.002445	0.001804	-0.010663	1.000000	0.000031	0.000023	-0.000133	-0.083353	0.048447	0.995342	-0.542708	-0.839909	-0.004566	0.835775	-0.540560	0.096301
11130		9.832814	-0.045648	0.913047	-0.002872	0.009779	-0.007302	1.000000	-0.000036	0.000122	-0.000091	-0.083407	0.048640	0.995328	-0.542780	-0.839863	-0.004442	0.835723	-0.540614	0.096451
11131		9.832281	-0.075769	0.933575	-0.000509	0.012565	-0.007640	1.000000	-0.000006	0.000157	-0.000096	-0.083654	0.048932	0.995293	-0.542742	-0.839888	-0.004325	0.835723	-0.540549	0.096818
11132		9.848714	-0.017824	0.908821	-0.002821	0.011450	-0.007490	1.000000	-0.000035	0.000143	-0.000094	-0.083832	0.049224	0.995263	-0.542779	-0.839865	-0.004180	0.835681	-0.540558	0.097125
11133		9.835060	-0.030995	0.899931	-0.004696	0.015553	-0.013315	1.000000	-0.000059	0.000194	-0.000166	-0.084071	0.049651	0.995222	-0.542854	-0.839818	-0.003959	0.835609	-0.540593	0.097558
11134		9.821317	-0.036701	0.897888	-0.000950	0.010693	-0.012298	1.000000	-0.000012	0.000134	-0.000154	-0.084220	0.050003	0.995192	-0.542833	-0.839832	-0.003741	0.835607	-0.540538	0.097874
11135		9.818131	-0.003413	0.912278	-0.001642	0.014512	-0.012971	1.000000	-0.000021	0.000181	-0.000162	-0.084383	0.050409	0.995157	-0.542867	-0.839811	-0.003492	0.835569	-0.540533	0.098231
11136		9.837164	-0.006172	0.894227	-0.004521	0.011072	-0.013900	1.000000	-0.000057	0.000138	-0.000174	-0.084461	0.050800	0.995131	-0.542947	-0.839761	-0.003214	0.835509	-0.540575	0.098508
11137		9.833760	-0.011791	0.919929	-0.005679	0.018082	-0.011058	1.000000	-0.000071	0.000226	-0.000138	-0.084707	0.051241	0.995087	-0.543045	-0.839698	-0.002987	0.835420	-0.540630	0.098954
11138		9.809061	0.008861	0.919094	-0.008444	0.014869	-0.008651	1.000000	-0.000106	0.000186	-0.000108	-0.084963	0.051606	0.995047	-0.543182	-0.839610	-0.002835	0.835305	-0.540732	0.099367
11139		9.803094	0.012111	0.935059	-0.009721	0.012882	-0.010937	1.000000	-0.000122	0.000161	-0.000137	-0.085109	0.051947	0.995017	-0.543374	-0.839487	-0.002650	0.835165	-0.540892	0.099675
11140		9.830261	0.004455	0.920485	-0.012292	0.008682	-0.008593	1.000000	-0.000154	0.000109	-0.000107	-0.085261	0.052170	0.994992	-0.543588	-0.839348	-0.002571	0.835010	-0.541085	0.099922
11141		9.827008	-0.002405	0.944252	-0.008738	0.004821	-0.007520	1.000000	-0.000109	0.000060	-0.000094	-0.085213	0.052336	0.994987	-0.543785	-0.839221	-0.002428	0.834887	-0.541266	0.099972
11142		9.813709	0.022481	0.922524	-0.007816	0.005889	-0.008319	1.000000	-0.000098	0.000074	-0.000104	-0.085263	0.052545	0.994972	-0.543945	-0.839118	-0.002298	0.834778	-0.541406	0.100127
11143		9.832572	-0.006886	0.927213	-0.002468	0.003580	-0.006175	1.000000	-0.000031	0.000045	-0.000077	-0.085265	0.052724	0.994962	-0.543968	-0.839103	-0.002151	0.834763	-0.541411	0.100226
11144		9.821018	0.003606	0.960271	-0.002581	0.004434	-0.007025	1.000000	-0.000032	0.000055	-0.000088	-0.085337	0.052889	0.994947	-0.543999	-0.839083	-0.002055	0.834735	-0.541426	0.100377
11145		9.805809	0.010884	0.900622	-0.000203	0.001938	-0.008617	1.000000	-0.000003	0.000024	-0.000108	-0.085279	0.053105	0.994941	-0.543990	-0.839090	-0.001840	0.834747	-0.541394	0.100445
11146		9.821527	0.018557	0.923556	-0.001064	0.007103	-0.004981	1.000000	-0.000013	0.000089	-0.000062	-0.085476	0.053238	0.994917	-0.543968	-0.839104	-0.001833	0.834741	-0.541359	0.100683
11147		9.824061	0.003020	0.928012	-0.002456	0.008139	-0.003150	1.000000	-0.000031	0.000102	-0.000039	-0.085613	0.053365	0.994898	-0.544006	-0.839079	-0.001806	0.834702	-0.541385	0.100867
11148		9.859014	-0.034805	0.941245	0.000083	0.006462	-0.004078	1.000000	0.000001	0.000081	-0.000051	-0.085725	0.053498	0.994881	-0.543987	-0.839092	-0.001753	0.834703	-0.541353	0.101033
11149		9.845194	0.009790	0.940897	0.011134	0.008278	-0.002355	1.000000	0.000139	0.000103	-0.000029	-0.085913	0.053585	0.994861	-0.543722	-0.839263	-0.001750	0.834856	-0.541078	0.101239
11150		9.788386	-0.001301	0.927016	0.004538	0.016634	-0.003226	1.000000	0.000057	0.000208	-0.000040	-0.086226	0.053798	0.994822	-0.543615	-0.839333	-0.001729	0.834894	-0.540949	0.101617
11151		9.784686	-0.041230	0.970325	0.011421	0.011715	-0.000297	1.000000	0.000143	0.000146	-0.000004	-0.086577	0.053918	0.994785	-0.543320	-0.839524	-0.001783	0.835050	-0.540641	0.101978
11152		9.804075	-0.053134	0.944210	0.013111	0.004275	-0.004357	1.000000	0.000164	0.000053	-0.000054	-0.086640	0.053993	0.994775	-0.543052	-0.839698	-0.001721	0.835218	-0.540364	0.102073
11153		9.830441	-0.020390	0.969962	0.012917	0.005259	-0.004296	1.000000	0.000161	0.000066	-0.000054	-0.086748	0.054092	0.994761	-0.542780	-0.839873	-0.001664	0.835383	-0.540081	0.102218
11154		9.825273	-0.000055	0.951576	0.002558	0.000715	-0.002872	1.000000	0.000032	0.000009	-0.000036	-0.086756	0.054104	0.994759	-0.542716	-0.839915	-0.001650	0.835424	-0.540015	0.102231
11155		9.812045	-0.015027	0.939235	0.004336	-0.001211	-0.002334	1.000000	0.000054	-0.000015	-0.000029	-0.086793	0.054055	0.994759	-0.542598	-0.839991	-0.001697	0.835497	-0.539901	0.102235
11156		9.792840	-0.015333	0.952945	0.000991	-0.002542	-0.002245	1.000000	0.000012	-0.000032	-0.000028	-0.086732	0.054080	0.994763	-0.542561	-0.840015	-0.001638	0.835527	-0.539862	0.102198
11157		9.830801	-0.031026	0.955904	0.004578	-0.000527	-0.002580	1.000000	0.000057	-0.000007	-0.000032	-0.086751	0.054103	0.994760	-0.542443	-0.840091	-0.001615	0.835601	-0.539741	0.102227
11158		9.838332	-0.013313	0.980960	0.002333	0.002421	-0.004572	1.000000	0.000029	0.000030	-0.000057	-0.086677	0.054153	0.994764	-0.542403	-0.840117	-0.001528	0.835635	-0.539696	0.102191
11159		9.836430	-0.029918	0.943949	0.002723	0.000448	-0.004691	1.000000	0.000034	0.000006	-0.000059	-0.086703	0.054218	0.994758	-0.542300	-0.840184	-0.001474	0.835699	-0.539585	0.102249
11160		9.809524	-0.000976	0.929390	0.000685	-0.000703	-0.003035	1.000000	0.000009	-0.000009	-0.000038	-0.086700	0.054237	0.994757	-0.542260	-0.840210	-0.001451	0.835726	-0.539543	0.102257
11161		9.825068	-0.026060	0.969109	-0.001531	0.001525	-0.003267	1.000000	-0.000019	0.000019	-0.000041	-0.086711	0.054244	0.994756	-0.542293	-0.840188	-0.001455	0.835703	-0.539575	0.102269
11162		9.819534	-0.031150	0.974990	0.001087	0.000801	-0.002618	1.000000	0.000014	0.000010	-0.000033	-0.086749	0.054247	0.994752	-0.542240	-0.840222	-0.001467	0.835733	-0.539522	0.102303
11163		9.835695	0.000640	0.972269	0.002913	0.000546	-0.002267	1.000000	0.000036	0.000007	-0.000028	-0.086740	0.054210	0.994755	-0.542173	-0.840266	-0.001485	0.835778	-0.539458	0.102276
11164		9.839102	-0.003753	0.936953	-0.000402	0.005083	-0.003588	1.000000	-0.000005	0.000064	-0.000045	-0.086925	0.054290	0.994735	-0.542131	-0.840292	-0.001513	0.835786	-0.539408	0.102474
11165		9.822496	-0.020213	0.954616	-0.001206	0.002076	-0.004423	1.000000	-0.000015	0.000026	-0.000055	-0.086998	0.054341	0.994725	-0.542127	-0.840295	-0.001510	0.835781	-0.539399	0.102563
11166		9.803370	-0.027069	0.962356	-0.001289	0.002209	-0.003513	1.000000	-0.000016	0.000028	-0.000044	-0.086975	0.054421	0.994723	-0.542144	-0.840284	-0.001432	0.835772	-0.539408	0.102587
11167		9.819329	-0.026917	0.977178	0.001158	-0.002810	-0.004064	1.000000	0.000014	-0.000035	-0.000051	-0.086862	0.054439	0.994732	-0.542118	-0.840301	-0.001352	0.835801	-0.539380	0.102503
11168		9.816620	-0.009338	0.974312	-0.000574	0.000787	-0.004788	1.000000	-0.000007	0.000010	-0.000060	-0.086869	0.054461	0.994730	-0.542131	-0.840293	-0.001338	0.835792	-0.539390	0.102520
11169		9.820699	0.004803	0.906299	-0.001944	-0.003457	-0.004221	1.000000	-0.000024	-0.000043	-0.000053	-0.086799	0.054487	0.994735	-0.542148	-0.840282	-0.001280	0.835788	-0.539405	0.102476
11170		9.839292	-0.004590	0.929887	-0.005837	-0.003635	-0.004677	1.000000	-0.000073	-0.000045	-0.000058	-0.086712	0.054508	0.994741	-0.542244	-0.840220	-0.001227	0.835735	-0.539499	0.102414
11171		9.803640	-0.021846	0.959733	-0.000436	-0.005349	-0.005197	1.000000	-0.000005	-0.000067	-0.000065	-0.086561	0.054484	0.994756	-0.542255	-0.840213	-0.001166	0.835743	-0.539513	0.102274
11172		9.830135	0.010613	0.983549	-0.002175	-0.000666	-0.003437	1.000000	-0.000027	-0.000008	-0.000043	-0.086566	0.054490	0.994755	-0.542284	-0.840194	-0.001167	0.835724	-0.539541	0.102281
11173		9.819526	-0.013879	0.980491	-0.005436	-0.002133	-0.004258	1.000000	-0.000068	-0.000027	-0.000053	-0.086516	0.054510	0.994758	-0.542383	-0.840130	-0.001135	0.835665	-0.539638	0.102250
11174		9.860353	-0.006791	0.974365	-0.000287	-0.008008	-0.005070	1.000000	-0.000004	-0.000100	-0.000063	-0.086333	0.054466	0.994776	-0.542377	-0.840134	-0.001072	0.835688	-0.539636	0.102073
11175		9.822627	0.003932	0.963627	-0.009062	0.004240	-0.006366	1.000000	-0.000113	0.000053	-0.000080	-0.086371	0.054594	0.994766	-0.542572	-0.840009	-0.001008	0.835557	-0.539819	0.102174
11176		9.769322	-0.037229	0.934762	-0.006571	-0.009172	-0.004473	1.000000	-0.000082	-0.000115	-0.000056	-0.086183	0.054541	0.994785	-0.542692	-0.839931	-0.000965	0.835499	-0.539945	0.101987
11177		9.818287	-0.033970	0.931820	0.004204	-0.007311	-0.004259	1.000000	0.000053	-0.000091	-0.000053	-0.085997	0.054482	0.994805	-0.542608	-0.839986	-0.000903	0.835573	-0.539866	0.101798
11178		9.850336	0.004463	0.949314	0.001195	-0.004617	-0.004786	1.000000	0.000015	-0.000058	-0.000060	-0.085922	0.054446	0.994813	-0.542568	-0.840012	-0.000888	0.835606	-0.539830	0.101716
11179		9.817847	-0.004444	0.956789	-0.002117	-0.006671	-0.002936	1.000000	-0.000026	-0.000083	-0.000037	-0.085792	0.054386	0.994828	-0.542598	-0.839992	-0.000872	0.835600	-0.539866	0.101574
11180		9.831786	-0.008639	0.946180	-0.004034	-0.009764	-0.002912	1.000000	-0.000050	-0.000122	-0.000036	-0.085560	0.054221	0.994857	-0.542689	-0.839933	-0.000895	0.835564	-0.539975	0.101289
11181		9.816079	-0.046436	0.939719	0.003265	-0.009686	0.000968	1.000000	0.000041	-0.000121	0.000012	-0.085392	0.054010	0.994882	-0.542607	-0.839986	-0.000971	0.835635	-0.539913	0.101034
11182		9.810144	-0.024964	0.970504	0.010848	-0.011818	0.001396	1.000000	0.000136	-0.000148	0.000017	-0.085235	0.053741	0.994911	-0.542355	-0.840149	-0.001082	0.835815	-0.539687	0.100757
11183		9.822038	-0.001953	0.917931	0.004577	-0.010594	0.000053	1.000000	0.000057	-0.000132	0.000001	-0.085097	0.053519	0.994934	-0.542227	-0.840231	-0.001180	0.835912	-0.539581	0.100520
11184		9.835710	-0.031748	0.931505	0.003785	-0.010126	-0.000244	1.000000	0.000047	-0.000127	-0.000003	-0.084967	0.053310	0.994957	-0.542116	-0.840303	-0.001271	0.835997	-0.539490	0.100298
11185		9.830324	-0.030656	0.941252	0.008185	-0.012775	0.000940	1.000000	0.000102	-0.000160	0.000012	-0.084764	0.053049	0.994988	-0.541941	-0.840416	-0.001361	0.836131	-0.539340	0.099986
11186		9.814068	-0.009028	0.944763	0.004832	-0.007520	-0.002138	1.000000	0.000060	-0.000094	-0.000027	-0.084609	0.052853	0.995011	-0.541829	-0.840488	-0.001429	0.836219	-0.539247	0.099750
11187		9.827379	0.007105	0.956151	0.001712	0.000600	-0.000502	1.000000	0.000021	0.000008	-0.000006	-0.084710	0.052788	0.995006	-0.541742	-0.840543	-0.001528	0.836265	-0.539166	0.099800
11188		9.833506	-0.014261	0.922966	-0.010522	0.001214	-0.002397	1.000000	-0.000132	0.000015	-0.000030	-0.084782	0.052797	0.995000	-0.541935	-0.840419	-0.001583	0.836133	-0.539359	0.099865
11189		9.831081	-0.010951	0.906388	-0.007348	-0.001752	-0.003687	1.000000	-0.000092	-0.000022	-0.000046	-0.084725	0.052823	0.995003	-0.542091	-0.840319	-0.001548	0.836038	-0.539513	0.099831
11190		9.817547	-0.012184	0.907754	-0.005039	-0.000633	-0.003832	1.000000	-0.000063	-0.000008	-0.000048	-0.084694	0.052822	0.995006	-0.542204	-0.840245	-0.001546	0.835967	-0.539627	0.099804
11191		9.817954	-0.025150	0.893098	-0.001280	-0.005472	-0.002819	1.000000	-0.000016	-0.000068	-0.000035	-0.084697	0.052709	0.995012	-0.542196	-0.840250	-0.001642	0.835972	-0.539631	0.099745
11192		9.800983	-0.014353	0.936299	0.002536	-0.006246	-0.003941	1.000000	0.000032	-0.000078	-0.000049	-0.084579	0.052650	0.995025	-0.542132	-0.840291	-0.001620	0.836026	-0.539572	0.099614
11193		9.822946	-0.022224	0.930044	0.002132	-0.006664	-0.001876	1.000000	0.000027	-0.000083	-0.000023	-0.084524	0.052542	0.995035	-0.542072	-0.840330	-0.001674	0.836070	-0.539523	0.099510
11194		9.815205	-0.024878	0.917284	0.005304	-0.008541	-0.000686	1.000000	0.000066	-0.000107	-0.000009	-0.084393	0.052386	0.995054	-0.541954	-0.840406	-0.001720	0.836160	-0.539419	0.099316
11195		9.822973	-0.007532	0.940194	0.000824	-0.006849	-0.003437	1.000000	0.000010	-0.000086	-0.000043	-0.084306	0.052292	0.995067	-0.541924	-0.840426	-0.001748	0.836188	-0.539398	0.099191
11196		9.812654	-0.000307	0.917458	-0.007617	-0.011799	-0.002553	1.000000	-0.000095	-0.000147	-0.000032	-0.084044	0.052121	0.995098	-0.542085	-0.840322	-0.001769	0.836110	-0.539577	0.098878
11197		9.837603	-0.032102	0.906301	-0.007922	-0.005387	-0.000329	1.000000	-0.000099	-0.000067	-0.000004	-0.083949	0.051979	0.995113	-0.542253	-0.840213	-0.001857	0.836011	-0.539759	0.098721
11198		9.826426	-0.030087	0.930494	-0.011728	-0.002222	-0.001152	1.000000	-0.000147	-0.000028	-0.000014	-0.084015	0.051915	0.995111	-0.542471	-0.840073	-0.001973	0.835863	-0.539984	0.098741
11199		9.829151	-0.039362	0.938944	-0.004979	-0.006647	-0.003322	1.000000	-0.000062	-0.000083	-0.000042	-0.083872	0.051834	0.995127	-0.542576	-0.840004	-0.001976	0.835809	-0.540098	0.098577
11200		9.835300	0.010976	0.876268	-0.012302	0.000955	-0.007879	1.000000	-0.000154	0.000012	-0.000098	-0.083869	0.051915	0.995124	-0.542804	-0.839857	-0.001933	0.835661	-0.540319	0.098618
11201		9.786189	-0.008068	0.908641	-0.016410	-0.004121	-0.006851	1.000000	-0.000205	-0.000052	-0.000086	-0.083744	0.051938	0.995133	-0.543146	-0.839636	-0.001885	0.835452	-0.540660	0.098524
11202		9.769870	-0.024263	0.924655	-0.013505	-0.002482	-0.006641	1.000000	-0.000169	-0.000031	-0.000083	-0.083642	0.052010	0.995138	-0.543445	-0.839443	-0.001804	0.835267	-0.540954	0.098477
11203		9.843410	-0.014261	0.902305	-0.015394	-0.008698	-0.002906	1.000000	-0.000192	-0.000109	-0.000036	-0.083447	0.051883	0.995161	-0.543768	-0.839234	-0.001843	0.835077	-0.541290	0.098244
11204		9.849708	-0.035505	0.866806	-0.011340	-0.007694	-0.001798	1.000000	-0.000142	-0.000096	-0.000022	-0.083320	0.051748	0.995178	-0.543991	-0.839089	-0.001914	0.834944	-0.541528	0.098063
11205		9.847093	-0.050927	0.879528	-0.003086	-0.011827	0.000005	1.000000	-0.000039	-0.000148	0.000000	-0.083121	0.051531	0.995206	-0.544045	-0.839053	-0.001994	0.834929	-0.541603	0.097778
11206		9.800717	-0.042370	0.908595	0.004193	-0.008624	0.000160	1.000000	0.000052	-0.000108	0.000002	-0.082995	0.051326	0.995227	-0.543957	-0.839110	-0.002088	0.834998	-0.541535	0.097561
11207		9.824870	-0.040227	0.932346	0.006340	-0.007233	0.001830	1.000000	0.000079	-0.000090	0.000023	-0.082886	0.051141	0.995246	-0.543841	-0.839185	-0.002170	0.835085	-0.541436	0.097369
11208		9.873798	-0.006005	0.911929	-0.002475	-0.005429	-0.001047	1.000000	-0.000031	-0.000068	-0.000013	-0.082836	0.051012	0.995257	-0.543872	-0.839165	-0.002255	0.835070	-0.541479	0.097257
11209		9.855453	-0.040632	0.890935	-0.009447	0.002005	-0.004990	1.000000	-0.000118	0.000025	-0.000062	-0.082874	0.051078	0.995250	-0.544064	-0.839040	-0.002243	0.834941	-0.541666	0.097324
11210		9.820104	-0.033147	0.897267	-0.002823	-0.002866	-0.003595	1.000000	-0.000035	-0.000036	-0.000045	-0.082767	0.051042	0.995261	-0.544138	-0.838993	-0.002224	0.834903	-0.541744	0.097215
11211		9.796004	-0.027608	0.878189	-0.004723	-0.000086	-0.004975	1.000000	-0.000059	-0.000001	-0.000062	-0.082734	0.051085	0.995261	-0.544221	-0.838939	-0.002179	0.834853	-0.541822	0.097210
11212		9.828104	-0.028349	0.907568	-0.004570	-0.001662	-0.002367	1.000000	-0.000057	-0.000021	-0.000030	-0.082732	0.051053	0.995263	-0.544303	-0.838886	-0.002214	0.834799	-0.541908	0.097191
11213		9.841689	-0.025445	0.905551	-0.002022	-0.000938	-0.005244	1.000000	-0.000025	-0.000012	-0.000066	-0.082665	0.051082	0.995267	-0.544362	-0.838848	-0.002160	0.834767	-0.541964	0.097151
11214		9.836399	-0.037338	0.904169	-0.001507	0.000803	-0.001499	1.000000	-0.000019	0.000010	-0.000019	-0.082717	0.051057	0.995264	-0.544391	-0.838829	-0.002212	0.834743	-0.541996	0.097180
11215		9.806690	-0.031306	0.897583	0.001385	-0.004521	-0.002365	1.000000	0.000017	-0.000057	-0.000030	-0.082686	0.050979	0.995271	-0.544341	-0.838861	-0.002256	0.834779	-0.541953	0.097112
11216		9.812112	-0.018117	0.897559	-0.000368	-0.006802	-0.001673	1.000000	-0.000005	-0.000085	-0.000021	-0.082494	0.050855	0.995293	-0.544370	-0.838842	-0.002259	0.834779	-0.541994	0.096884
11217		9.831136	-0.034982	0.913050	0.000622	-0.008260	-0.001437	1.000000	0.000008	-0.000103	-0.000018	-0.082319	0.050706	0.995315	-0.544357	-0.838850	-0.002287	0.834805	-0.541995	0.096656
11218		9.823527	-0.044399	0.893271	0.003366	-0.007436	-0.001894	1.000000	0.000042	-0.000093	-0.000024	-0.082146	0.050581	0.995336	-0.544298	-0.838889	-0.002290	0.834860	-0.541947	0.096443
11219		9.820561	-0.013561	0.902962	0.008614	-0.006475	-0.002563	1.000000	0.000108	-0.000081	-0.000032	-0.082034	0.050501	0.995349	-0.544133	-0.838996	-0.002278	0.834979	-0.541789	0.096305
11220		9.821027	-0.026684	0.887330	0.006147	-0.007334	-0.000593	1.000000	0.000077	-0.000092	-0.000007	-0.081990	0.050312	0.995362	-0.543959	-0.839109	-0.002393	0.835097	-0.541632	0.096167
11221		9.813579	-0.043131	0.860342	0.001373	-0.010407	-0.000950	1.000000	0.000017	-0.000130	-0.000012	-0.081810	0.050139	0.995386	-0.543936	-0.839123	-0.002438	0.835129	-0.541626	0.095921
11222		9.832536	-0.053235	0.881995	-0.000257	-0.011148	-0.001352	1.000000	-0.000003	-0.000139	-0.000017	-0.081562	0.049948	0.995416	-0.543964	-0.839105	-0.002467	0.835135	-0.541672	0.095609
11223		9.851425	-0.031529	0.886394	-0.001561	-0.006758	0.000103	1.000000	-0.000020	-0.000084	0.000001	-0.081472	0.049777	0.995432	-0.543978	-0.839096	-0.002563	0.835135	-0.541702	0.095441
11224		9.833009	-0.059901	0.871414	-0.000842	-0.004695	-0.000640	1.000000	-0.000011	-0.000059	-0.000008	-0.081456	0.049653	0.995439	-0.543975	-0.839097	-0.002658	0.835138	-0.541711	0.095359
11225		9.867500	0.006821	0.888230	-0.007076	-0.001802	-0.002149	1.000000	-0.000088	-0.000023	-0.000027	-0.081420	0.049594	0.995445	-0.544129	-0.838997	-0.002707	0.835041	-0.541871	0.095297
11226		9.811095	-0.011530	0.864562	-0.013150	0.000821	-0.005475	1.000000	-0.000164	0.000010	-0.000068	-0.081478	0.049664	0.995437	-0.544399	-0.838822	-0.002710	0.834860	-0.542136	0.095383
11227		9.792358	-0.057918	0.882017	-0.003307	-0.005555	0.001331	1.000000	-0.000041	-0.000069	0.000017	-0.081435	0.049515	0.995448	-0.544489	-0.838763	-0.002822	0.834805	-0.542240	0.095265
11228		9.805909	-0.048979	0.885594	0.000266	-0.008098	-0.002035	1.000000	0.000003	-0.000101	-0.000025	-0.081266	0.049392	0.995468	-0.544507	-0.838752	-0.002835	0.834810	-0.542269	0.095056
11229		9.849638	-0.033937	0.856381	-0.008555	-0.007609	-0.000474	1.000000	-0.000107	-0.000095	-0.000006	-0.081124	0.049213	0.995488	-0.544681	-0.838638	-0.002928	0.834710	-0.542461	0.094839
11230		9.841008	-0.028122	0.903293	-0.014553	-0.006430	-0.000280	1.000000	-0.000182	-0.000080	-0.000003	-0.081020	0.049051	0.995505	-0.544987	-0.838439	-0.003043	0.834521	-0.542784	0.094663
11231		9.841614	-0.023965	0.856754	-0.019592	-0.001412	0.001406	1.000000	-0.000245	-0.000018	0.000018	-0.081104	0.048919	0.995504	-0.545372	-0.838188	-0.003243	0.834261	-0.543183	0.094659
11232		9.823485	-0.080802	0.817091	-0.043403	0.016977	0.002517	1.000000	-0.000543	0.000212	0.000031	-0.081492	0.049045	0.995467	-0.546302	-0.837581	-0.003455	0.833614	-0.544107	0.095050
11233		9.835516	-0.114951	0.934825	-0.030691	0.014273	0.003340	1.000000	-0.000384	0.000178	0.000042	-0.081856	0.049088	0.995435	-0.546929	-0.837171	-0.003692	0.833168	-0.544734	0.095375
11234		9.822113	-0.074482	0.882564	-0.015569	0.003796	0.001288	1.000000	-0.000195	0.000047	0.000016	-0.082032	0.049056	0.995422	-0.547249	-0.836961	-0.003852	0.832940	-0.545060	0.095503
11235		9.838365	-0.057445	0.866540	-0.009571	0.002621	0.001091	1.000000	-0.000120	0.000033	0.000014	-0.082180	0.048995	0.995412	-0.547429	-0.836843	-0.004005	0.832808	-0.545246	0.095593
11236		9.811137	-0.023286	0.858692	-0.001406	-0.008342	0.002695	1.000000	-0.000018	-0.000104	0.000034	-0.082149	0.048753	0.995427	-0.547441	-0.836834	-0.004193	0.832803	-0.545282	0.095434
11237		9.827553	-0.063677	0.882181	-0.002833	-0.006586	0.002773	1.000000	-0.000035	-0.000082	0.000035	-0.082121	0.048511	0.995441	-0.547469	-0.836814	-0.004384	0.832787	-0.545333	0.095278
11238		9.802754	-0.050825	0.920691	0.000255	-0.012898	0.001833	1.000000	0.000003	-0.000161	0.000023	-0.081937	0.048220	0.995470	-0.547463	-0.836818	-0.004526	0.832809	-0.545354	0.094965
11239		9.838602	-0.039389	0.879779	-0.000335	-0.009933	0.002019	1.000000	-0.000004	-0.000124	0.000025	-0.081826	0.047972	0.995491	-0.547461	-0.836818	-0.004673	0.832821	-0.545375	0.094737
11240		9.836264	-0.036903	0.861117	-0.002477	-0.007841	0.000895	1.000000	-0.000031	-0.000098	0.000011	-0.081698	0.047780	0.995511	-0.547519	-0.836779	-0.004772	0.832795	-0.545451	0.094523
11241		9.822787	-0.032446	0.867434	-0.000299	-0.011745	0.001296	1.000000	-0.000004	-0.000147	0.000016	-0.081469	0.047509	0.995543	-0.547539	-0.836766	-0.004876	0.832805	-0.545496	0.094183
11242		9.828466	-0.058756	0.877251	-0.002116	-0.005607	-0.000445	1.000000	-0.000026	-0.000070	-0.000006	-0.081429	0.047372	0.995553	-0.547586	-0.836735	-0.004974	0.832778	-0.545556	0.094074
11243		9.833929	-0.077756	0.895039	0.001621	-0.003831	-0.002620	1.000000	0.000020	-0.000048	-0.000033	-0.081336	0.047323	0.995563	-0.547601	-0.836725	-0.004965	0.832777	-0.545575	0.093970
11244		9.814932	-0.021328	0.866102	-0.003228	-0.005697	0.000420	1.000000	-0.000040	-0.000071	0.000005	-0.081243	0.047158	0.995578	-0.547683	-0.836671	-0.005062	0.832732	-0.545673	0.093801
11245		9.828781	-0.026453	0.855459	-0.004664	-0.009832	0.001902	1.000000	-0.000058	-0.000123	0.000024	-0.081143	0.046909	0.995598	-0.547770	-0.836613	-0.005225	0.832685	-0.545782	0.093581
11246		9.834636	-0.066550	0.852360	-0.016407	0.001500	-0.001280	1.000000	-0.000205	0.000019	-0.000016	-0.081186	0.046892	0.995595	-0.548125	-0.836380	-0.005304	0.832447	-0.546141	0.093605
11247		9.840002	-0.085635	0.871312	-0.013949	-0.001123	-0.003793	1.000000	-0.000174	-0.000014	-0.000047	-0.081101	0.046890	0.995602	-0.548454	-0.836164	-0.005296	0.832239	-0.546471	0.093531
11248		9.823694	-0.045413	0.846201	-0.015412	0.002442	-0.002988	1.000000	-0.000193	0.000031	-0.000037	-0.081171	0.046914	0.995595	-0.548776	-0.835952	-0.005350	0.832019	-0.546794	0.093600
11249		9.823764	-0.077166	0.863760	-0.016769	-0.001828	-0.002415	1.000000	-0.000210	-0.000023	-0.000030	-0.081139	0.046870	0.995600	-0.549131	-0.835719	-0.005409	0.831788	-0.547154	0.093547
11250		9.893700	-0.049354	0.891865	-0.010375	-0.003895	-0.000265	1.000000	-0.000130	-0.000049	-0.000003	-0.081103	0.046750	0.995609	-0.549353	-0.835572	-0.005515	0.831645	-0.547388	0.093450
11251		9.788306	-0.031849	0.858813	-0.021332	0.001067	-0.001739	1.000000	-0.000267	0.000013	-0.000022	-0.081167	0.046733	0.995604	-0.549803	-0.835275	-0.005616	0.831341	-0.547842	0.093490
11252		9.772880	-0.115177	0.856789	-0.004190	-0.010625	-0.003562	1.000000	-0.000052	-0.000133	-0.000045	-0.081001	0.046585	0.995625	-0.549878	-0.835226	-0.005656	0.831308	-0.547930	0.093271
11253		9.815728	-0.051730	0.875563	0.000571	-0.014515	-0.004297	1.000000	0.000007	-0.000181	-0.000054	-0.080706	0.046414	0.995657	-0.549882	-0.835224	-0.005637	0.831334	-0.547948	0.092929
11254		9.827240	-0.027320	0.821748	-0.000427	-0.018956	-0.003125	1.000000	-0.000005	-0.000237	-0.000039	-0.080325	0.046133	0.995701	-0.549882	-0.835223	-0.005662	0.831371	-0.547973	0.092457
11255		9.846403	-0.037157	0.841758	-0.000182	-0.014780	-0.002828	1.000000	-0.000002	-0.000185	-0.000035	-0.080045	0.045923	0.995733	-0.549889	-0.835218	-0.005684	0.831393	-0.547998	0.092107
11256		9.854445	-0.077488	0.906313	-0.000961	-0.003843	-0.001494	1.000000	-0.000012	-0.000048	-0.000019	-0.080020	0.045833	0.995739	-0.549914	-0.835201	-0.005749	0.831379	-0.548031	0.092037
11257		9.795362	-0.111783	0.896553	0.004242	-0.006950	-0.000060	1.000000	0.000053	-0.000087	-0.000001	-0.079943	0.045665	0.995753	-0.549835	-0.835253	-0.005838	0.831439	-0.547967	0.091881
11258		9.865447	-0.058709	0.898964	0.006189	-0.008055	0.001122	1.000000	0.000077	-0.000101	0.000014	-0.079872	0.045444	0.995769	-0.549685	-0.835351	-0.005967	0.831545	-0.547835	0.091701
11259		9.860612	-0.067054	0.851066	0.000047	0.000356	0.004238	1.000000	0.000001	0.000004	0.000053	-0.080015	0.045294	0.995764	-0.549680	-0.835353	-0.006173	0.831535	-0.547845	0.091738
11260		9.839238	-0.111594	0.853234	-0.001619	0.006237	0.000684	1.000000	-0.000020	0.000078	0.000009	-0.080243	0.045290	0.995746	-0.549705	-0.835335	-0.006304	0.831496	-0.547873	0.091926
11261		9.792924	-0.109975	0.878395	-0.000525	-0.004143	-0.001803	1.000000	-0.000007	-0.000052	-0.000023	-0.080172	0.045198	0.995756	-0.549730	-0.835319	-0.006345	0.831487	-0.547905	0.091815
11262		9.822582	-0.076208	0.872663	0.001936	-0.005678	-0.001840	1.000000	0.000024	-0.000071	-0.000023	-0.080087	0.045082	0.995768	-0.549699	-0.835339	-0.006392	0.831515	-0.547884	0.091681
11263		9.828230	-0.076629	0.858868	-0.002352	-0.003898	-0.002137	1.000000	-0.000029	-0.000049	-0.000027	-0.080073	0.044992	0.995773	-0.549735	-0.835314	-0.006464	0.831492	-0.547929	0.091620
11264		9.822772	-0.050132	0.846045	-0.012124	-0.003789	-0.001494	1.000000	-0.000152	-0.000047	-0.000019	-0.080033	0.044901	0.995780	-0.550001	-0.835139	-0.006547	0.831321	-0.548204	0.091535
11265		9.815120	-0.066351	0.819936	-0.015904	-0.005932	-0.003547	1.000000	-0.000199	-0.000074	-0.000044	-0.079913	0.044819	0.995794	-0.550339	-0.834915	-0.006587	0.831108	-0.548551	0.091386
11266		9.845024	-0.096829	0.849199	-0.009382	-0.002956	-0.001961	1.000000	-0.000117	-0.000037	-0.000025	-0.079943	0.044734	0.995795	-0.550501	-0.834808	-0.006692	0.830998	-0.548721	0.091363
11267		9.818000	-0.100713	0.852100	-0.006718	-0.001989	-0.001521	1.000000	-0.000084	-0.000025	-0.000019	-0.079879	0.044660	0.995804	-0.550664	-0.834700	-0.006737	0.830896	-0.548891	0.091268
11268		9.804419	-0.070478	0.835299	-0.002512	-0.007129	-0.000859	1.000000	-0.000031	-0.000089	-0.000011	-0.079760	0.044518	0.995820	-0.550751	-0.834642	-0.006799	0.830850	-0.548991	0.091089
11269		9.848115	-0.062009	0.799252	-0.005134	-0.006417	-0.001482	1.000000	-0.000064	-0.000080	-0.000019	-0.079740	0.044385	0.995827	-0.550829	-0.834589	-0.006909	0.830800	-0.549081	0.090998
11270		9.867522	-0.124966	0.819204	-0.003692	0.002300	0.000060	1.000000	-0.000046	0.000029	0.000001	-0.079879	0.044334	0.995818	-0.550884	-0.834552	-0.007035	0.830750	-0.549143	0.091086
11271		9.799666	-0.128354	0.835551	0.004090	0.001621	-0.001584	1.000000	0.000051	0.000020	-0.000020	-0.079906	0.044319	0.995817	-0.550830	-0.834588	-0.007056	0.830784	-0.549089	0.091101
11272		9.766842	-0.091983	0.840750	0.005389	-0.006260	-0.003597	1.000000	0.000067	-0.000078	-0.000045	-0.079840	0.044233	0.995826	-0.550714	-0.834664	-0.007079	0.830867	-0.548980	0.091000
11273		9.848245	-0.059820	0.797823	0.001498	-0.000561	-0.005414	1.000000	0.000019	-0.000007	-0.000068	-0.079848	0.044272	0.995823	-0.550708	-0.834668	-0.007050	0.830870	-0.548971	0.091028
11274		9.865105	-0.125632	0.795483	-0.006000	0.005981	-0.003659	1.000000	-0.000075	0.000075	-0.000046	-0.079963	0.044367	0.995810	-0.550880	-0.834555	-0.007053	0.830745	-0.549136	0.091174
11275		9.858470	-0.070092	0.865758	-0.002577	0.005884	-0.000265	1.000000	-0.000032	0.000074	-0.000003	-0.080107	0.044375	0.995798	-0.550950	-0.834508	-0.007134	0.830685	-0.549206	0.091298
11276		9.777647	-0.090904	0.818898	-0.012189	0.011623	-0.002832	1.000000	-0.000152	0.000145	-0.000035	-0.080402	0.044520	0.995768	-0.551206	-0.834338	-0.007204	0.830486	-0.549453	0.091622
11277		9.783850	-0.182316	0.814924	0.002339	0.004144	-0.004764	1.000000	0.000029	0.000052	-0.000060	-0.080437	0.044618	0.995761	-0.551220	-0.834330	-0.007143	0.830474	-0.549457	0.091705
11278		9.866632	-0.124147	0.871887	0.008146	0.010953	-0.003835	1.000000	0.000102	0.000137	-0.000048	-0.080670	0.044783	0.995734	-0.551092	-0.834414	-0.007120	0.830536	-0.549316	0.091992
11279		9.826050	-0.118087	0.841065	0.005848	0.008488	0.000746	1.000000	0.000073	0.000106	0.000009	-0.080919	0.044801	0.995713	-0.550973	-0.834492	-0.007229	0.830590	-0.549196	0.092211
11280		9.822939	-0.094489	0.847250	0.006873	0.004138	-0.002234	1.000000	0.000086	0.000052	-0.000028	-0.081037	0.044813	0.995703	-0.550818	-0.834594	-0.007267	0.830682	-0.549040	0.092317
11281		9.833941	-0.120719	0.847818	0.008263	0.006599	-0.003529	1.000000	0.000103	0.000082	-0.000044	-0.081119	0.044905	0.995692	-0.550702	-0.834671	-0.007223	0.830751	-0.548916	0.092437
11282		9.796136	-0.149266	0.850566	0.009300	0.010311	-0.002941	1.000000	0.000116	0.000129	-0.000037	-0.081329	0.045039	0.995669	-0.550555	-0.834768	-0.007210	0.830828	-0.548757	0.092687
11283		9.847049	-0.110158	0.856740	0.006157	0.002065	-0.001492	1.000000	0.000077	0.000026	-0.000019	-0.081368	0.045027	0.995666	-0.550473	-0.834821	-0.007233	0.830878	-0.548676	0.092714
11284		9.836583	-0.091187	0.798382	0.001231	0.001640	-0.001958	1.000000	0.000015	0.000021	-0.000024	-0.081392	0.045018	0.995665	-0.550496	-0.834806	-0.007256	0.830861	-0.548700	0.092729
11285		9.850249	-0.120235	0.814494	0.003610	0.001561	-0.005506	1.000000	0.000045	0.000020	-0.000069	-0.081425	0.045060	0.995660	-0.550414	-0.834861	-0.007230	0.830912	-0.548614	0.092780
11286		9.814455	-0.117605	0.867308	0.006713	0.003314	-0.002893	1.000000	0.000084	0.000041	-0.000036	-0.081533	0.045085	0.995650	-0.550284	-0.834946	-0.007254	0.830987	-0.548482	0.092886
11287		9.790228	-0.111927	0.848741	0.009210	-0.003520	-0.004196	1.000000	0.000115	-0.000044	-0.000052	-0.081515	0.045039	0.995654	-0.550091	-0.835073	-0.007262	0.831117	-0.548292	0.092847
11288		9.814673	-0.097102	0.835000	0.007584	-0.003181	-0.002112	1.000000	0.000095	-0.000040	-0.000026	-0.081499	0.044959	0.995659	-0.549944	-0.835170	-0.007304	0.831216	-0.548152	0.092790
11289		9.857822	-0.086688	0.852136	0.003971	-0.005825	0.000914	1.000000	0.000050	-0.000073	0.000011	-0.081405	0.044764	0.995675	-0.549863	-0.835222	-0.007406	0.831279	-0.548088	0.092606
11290		9.828693	-0.108348	0.816872	0.003056	-0.004501	-0.000223	1.000000	0.000038	-0.000056	-0.000003	-0.081368	0.044634	0.995684	-0.549832	-0.835242	-0.007491	0.831303	-0.548069	0.092503
11291		9.806695	-0.111581	0.859574	-0.005840	-0.001505	0.000336	1.000000	-0.000073	-0.000019	0.000004	-0.081444	0.044505	0.995684	-0.549906	-0.835191	-0.007650	0.831246	-0.548156	0.092495
11292		9.836154	-0.103309	0.880238	-0.003774	0.007242	-0.002916	1.000000	-0.000047	0.000091	-0.000036	-0.081585	0.044582	0.995669	-0.550009	-0.835124	-0.007674	0.831165	-0.548252	0.092654
11293		9.849166	-0.061788	0.870603	-0.017278	0.013857	-0.003437	1.000000	-0.000216	0.000173	-0.000043	-0.081881	0.044753	0.995637	-0.550370	-0.834885	-0.007735	0.830896	-0.548602	0.092992
11294		9.838598	-0.100502	0.857339	-0.021724	0.015890	-0.001912	1.000000	-0.000272	0.000199	-0.000024	-0.082266	0.044934	0.995597	-0.550843	-0.834572	-0.007850	0.830545	-0.549063	0.093408
11295		9.835582	-0.115814	0.875963	-0.018667	0.013791	-0.004072	1.000000	-0.000233	0.000172	-0.000051	-0.082525	0.045123	0.995567	-0.551259	-0.834297	-0.007882	0.830243	-0.549466	0.093725
11296		9.813484	-0.106123	0.884178	-0.021927	0.013616	-0.009281	1.000000	-0.000274	0.000170	-0.000116	-0.082741	0.045435	0.995535	-0.551785	-0.833950	-0.007799	0.829872	-0.549966	0.094073
11297		9.799734	-0.106185	0.888461	-0.010965	0.007588	-0.010296	1.000000	-0.000137	0.000095	-0.000129	-0.082734	0.045686	0.995524	-0.552106	-0.833739	-0.007622	0.829659	-0.550265	0.094202
11298		9.837198	-0.074630	0.889621	-0.008740	0.006449	-0.007606	1.000000	-0.000109	0.000081	-0.000095	-0.082869	0.045851	0.995505	-0.552296	-0.833614	-0.007580	0.829519	-0.550442	0.094405
11299		9.813039	-0.074896	0.865299	-0.006794	0.004266	-0.008907	1.000000	-0.000085	0.000053	-0.000111	-0.082923	0.046015	0.995493	-0.552456	-0.833509	-0.007491	0.829407	-0.550587	0.094539
11300		9.869881	-0.099469	0.892882	-0.001074	0.000744	-0.008695	1.000000	-0.000013	0.000009	-0.000109	-0.082870	0.046126	0.995492	-0.552526	-0.833463	-0.007377	0.829366	-0.550647	0.094555
11301		9.821035	-0.049381	0.846417	-0.002981	0.008089	-0.007026	1.000000	-0.000037	0.000101	-0.000088	-0.083012	0.046300	0.995472	-0.552602	-0.833413	-0.007319	0.829301	-0.550707	0.094769
11302		9.783497	-0.109024	0.866108	0.000396	0.006561	-0.010345	1.000000	0.000005	0.000082	-0.000129	-0.083043	0.046521	0.995460	-0.552632	-0.833394	-0.007154	0.829278	-0.550717	0.094917
11303		9.796667	-0.116241	0.903725	0.009494	0.000193	-0.009037	1.000000	0.000119	0.000002	-0.000113	-0.082999	0.046631	0.995458	-0.552461	-0.833509	-0.007018	0.829396	-0.550535	0.094942
11304		9.820836	-0.067966	0.873755	0.004012	0.001995	-0.007560	1.000000	0.000050	0.000025	-0.000095	-0.083037	0.046735	0.995450	-0.552391	-0.833556	-0.006944	0.829439	-0.550454	0.095032
11305		9.850446	-0.064844	0.887066	0.000001	0.000238	-0.006895	1.000000	0.000000	0.000003	-0.000086	-0.082979	0.046806	0.995451	-0.552448	-0.833519	-0.006859	0.829407	-0.550505	0.095023
11306		9.861361	-0.076873	0.899723	-0.000433	-0.005355	-0.005198	1.000000	-0.000005	-0.000067	-0.000065	-0.082857	0.046757	0.995464	-0.552485	-0.833495	-0.006836	0.829394	-0.550545	0.094893
11307		9.802436	-0.110082	0.889947	0.007987	-0.003818	-0.006656	1.000000	0.000100	-0.000048	-0.000083	-0.082769	0.046765	0.995471	-0.552358	-0.833580	-0.006767	0.829488	-0.550416	0.094825
11308		9.802546	-0.133519	0.913880	0.019584	-0.000655	-0.006406	1.000000	0.000245	-0.000008	-0.000080	-0.082733	0.046821	0.995471	-0.552023	-0.833803	-0.006661	0.829715	-0.550074	0.094829
11309		9.866879	-0.084095	0.923437	0.025228	-0.004046	-0.005279	1.000000	0.000315	-0.000051	-0.000066	-0.082625	0.046785	0.995482	-0.551511	-0.834142	-0.006573	0.830065	-0.549563	0.094724
11310		9.848037	-0.046237	0.874687	0.012113	0.002963	-0.007861	1.000000	0.000151	0.000037	-0.000098	-0.082666	0.046887	0.995474	-0.551237	-0.834324	-0.006478	0.830244	-0.549277	0.094816
11311		9.850932	-0.085870	0.902431	0.003691	0.003829	-0.008339	1.000000	0.000046	0.000048	-0.000104	-0.082693	0.047035	0.995464	-0.551204	-0.834346	-0.006366	0.830263	-0.549231	0.094921
11312		9.821103	-0.078699	0.896895	-0.003615	-0.000015	-0.005811	1.000000	-0.000045	-0.000000	-0.000073	-0.082719	0.047072	0.995461	-0.551282	-0.834294	-0.006359	0.830208	-0.549306	0.094962
11313		9.785930	-0.078044	0.896222	-0.007267	-0.001938	-0.004547	1.000000	-0.000091	-0.000024	-0.000057	-0.082679	0.047056	0.995465	-0.551451	-0.834183	-0.006369	0.830100	-0.549477	0.094919
11314		9.832723	-0.091857	0.856748	-0.003770	-0.003239	-0.004538	1.000000	-0.000047	-0.000040	-0.000057	-0.082604	0.047024	0.995472	-0.551555	-0.834114	-0.006367	0.830038	-0.549584	0.094838
11315		9.842992	-0.058543	0.866645	-0.004652	0.003247	-0.005311	1.000000	-0.000058	0.000041	-0.000066	-0.082681	0.047092	0.995463	-0.551662	-0.834044	-0.006363	0.829960	-0.549685	0.094938
11316		9.815861	-0.062079	0.870825	-0.011961	0.002887	-0.002239	1.000000	-0.000150	0.000036	-0.000028	-0.082807	0.047094	0.995452	-0.551913	-0.833877	-0.006461	0.829780	-0.549938	0.095043
11317		9.794453	-0.092481	0.886022	-0.008297	-0.003482	-0.000178	1.000000	-0.000104	-0.000044	-0.000002	-0.082755	0.046967	0.995463	-0.552109	-0.833746	-0.006561	0.829655	-0.550146	0.094927
11318		9.790080	-0.106543	0.829872	0.001211	-0.013990	-0.003950	1.000000	0.000015	-0.000175	-0.000049	-0.082506	0.046772	0.995492	-0.552090	-0.833758	-0.006584	0.829692	-0.550145	0.094612
11319		9.841029	-0.060135	0.838516	0.000016	-0.011551	-0.004111	1.000000	0.000000	-0.000144	-0.000051	-0.082293	0.046608	0.995518	-0.552090	-0.833758	-0.006603	0.829713	-0.550159	0.094345
11320		9.857402	-0.085383	0.875658	-0.002059	-0.005026	-0.003111	1.000000	-0.000026	-0.000063	-0.000039	-0.082212	0.046523	0.995528	-0.552165	-0.833709	-0.006637	0.829672	-0.550241	0.094229
11321		9.833442	-0.086717	0.848990	0.002388	-0.003565	-0.004087	1.000000	0.000030	-0.000045	-0.000051	-0.082098	0.046485	0.995540	-0.552181	-0.833698	-0.006607	0.829672	-0.550261	0.094113
11322		9.819658	-0.074531	0.863643	0.001955	-0.005670	-0.001843	1.000000	0.000024	-0.000071	-0.000023	-0.082030	0.046364	0.995551	-0.552161	-0.833711	-0.006669	0.829692	-0.550252	0.093990
11323		9.811490	-0.063346	0.865171	0.002435	-0.007780	-0.002878	1.000000	0.000030	-0.000097	-0.000036	-0.081885	0.046223	0.995569	-0.552108	-0.833746	-0.006701	0.829742	-0.550210	0.093791
11324		9.838596	-0.076877	0.892030	-0.000595	-0.001611	-0.002831	1.000000	-0.000007	-0.000020	-0.000035	-0.081851	0.046176	0.995574	-0.552150	-0.833718	-0.006726	0.829717	-0.550257	0.093737
11325		9.847595	-0.113616	0.861185	-0.007917	0.005234	-0.005558	1.000000	-0.000099	0.000065	-0.000069	-0.081919	0.046288	0.995564	-0.552377	-0.833568	-0.006695	0.829560	-0.550475	0.093853
11326		9.870970	-0.046110	0.853236	0.000585	0.005330	-0.003515	1.000000	0.000007	0.000067	-0.000044	-0.082046	0.046339	0.995551	-0.552354	-0.833583	-0.006720	0.829563	-0.550447	0.093988
11327		9.816341	-0.021967	0.845179	-0.015678	0.014546	-0.003018	1.000000	-0.000196	0.000182	-0.000038	-0.082353	0.046532	0.995516	-0.552744	-0.833323	-0.006774	0.829272	-0.550824	0.094347
11328		9.789779	-0.096661	0.879509	-0.016982	0.010861	-0.005110	1.000000	-0.000212	0.000136	-0.000064	-0.082534	0.046704	0.995493	-0.553130	-0.833067	-0.006774	0.828997	-0.551196	0.094590
11329		9.792057	-0.117073	0.929768	-0.016421	0.008618	-0.007051	1.000000	-0.000205	0.000108	-0.000088	-0.082627	0.046880	0.995477	-0.553497	-0.832824	-0.006722	0.828742	-0.551549	0.094761
11330		9.828021	-0.123328	0.871657	-0.007468	0.000358	-0.008887	1.000000	-0.000093	0.000004	-0.000111	-0.082612	0.046986	0.995474	-0.553674	-0.832707	-0.006645	0.828625	-0.551717	0.094806
11331		9.840653	-0.067053	0.874183	-0.007277	0.003942	-0.005925	1.000000	-0.000091	0.000049	-0.000074	-0.082683	0.047075	0.995463	-0.553840	-0.832597	-0.006629	0.828508	-0.551875	0.094913
11332		9.835041	-0.065252	0.887194	-0.010842	-0.000524	-0.003637	1.000000	-0.000136	-0.000007	-0.000045	-0.082694	0.047069	0.995463	-0.554117	-0.832412	-0.006672	0.828321	-0.552155	0.094917
11333		9.814138	-0.089977	0.856978	-0.008304	0.001310	-0.004037	1.000000	-0.000104	0.000016	-0.000050	-0.082697	0.047084	0.995462	-0.554315	-0.832280	-0.006683	0.828189	-0.552352	0.094926
11334		9.795840	-0.161477	0.899075	-0.000038	-0.000360	-0.004229	1.000000	-0.000000	-0.000004	-0.000053	-0.082690	0.047087	0.995462	-0.554352	-0.832256	-0.006681	0.828165	-0.552389	0.094922
11335		9.865658	-0.094398	0.865008	0.013708	-0.001419	-0.007830	1.000000	0.000171	-0.000018	-0.000098	-0.082643	0.047145	0.995464	-0.554094	-0.832428	-0.006577	0.828342	-0.552124	0.094917
11336		9.848460	-0.032443	0.861279	0.003727	0.003116	-0.006579	1.000000	0.000047	0.000039	-0.000082	-0.082669	0.047237	0.995457	-0.554041	-0.832464	-0.006509	0.828375	-0.552062	0.094991
11337		9.829939	-0.077993	0.880383	-0.002921	0.009024	-0.005442	1.000000	-0.000037	0.000113	-0.000068	-0.082834	0.047391	0.995436	-0.554131	-0.832404	-0.006482	0.828298	-0.552139	0.095212
11338		9.808586	-0.132509	0.921604	0.001025	0.003946	-0.006293	1.000000	0.000013	0.000049	-0.000079	-0.082920	0.047484	0.995424	-0.554108	-0.832419	-0.006450	0.828304	-0.552108	0.095335
11339		9.797290	-0.084918	0.891932	0.004799	0.003935	-0.009190	1.000000	0.000060	0.000049	-0.000115	-0.082930	0.047630	0.995417	-0.554002	-0.832491	-0.006321	0.828374	-0.551987	0.095426
11340		9.821739	-0.075423	0.872876	0.004246	0.002685	-0.007793	1.000000	0.000053	0.000034	-0.000097	-0.082956	0.047752	0.995408	-0.553967	-0.832515	-0.006230	0.828395	-0.551940	0.095515
11341		9.840604	-0.065639	0.866291	0.005833	0.002846	-0.004736	1.000000	0.000073	0.000036	-0.000059	-0.083004	0.047797	0.995402	-0.553847	-0.832596	-0.006204	0.828471	-0.551815	0.095581
11342		9.835465	-0.102411	0.890425	0.003638	0.006732	-0.005121	1.000000	0.000045	0.000084	-0.000064	-0.083144	0.047912	0.995385	-0.553801	-0.832626	-0.006181	0.828488	-0.551759	0.095762
11343		9.797206	-0.085213	0.888708	0.008099	0.002312	-0.004709	1.000000	0.000101	0.000029	-0.000059	-0.083201	0.047950	0.995379	-0.553635	-0.832737	-0.006162	0.828593	-0.551589	0.095831
11344		9.796779	-0.070359	0.902973	0.006202	-0.000808	-0.004683	1.000000	0.000078	-0.000010	-0.000059	-0.083159	0.047953	0.995382	-0.553543	-0.832798	-0.006125	0.828658	-0.551496	0.095799
11345		9.829443	-0.065369	0.886933	0.002425	0.000515	-0.006195	1.000000	0.000030	0.000006	-0.000077	-0.083177	0.048006	0.995378	-0.553520	-0.832814	-0.006088	0.828672	-0.551468	0.095843
11346		9.835390	-0.096944	0.891861	0.005562	0.000476	-0.004310	1.000000	0.000070	0.000006	-0.000054	-0.083213	0.048016	0.995374	-0.553426	-0.832876	-0.006089	0.828731	-0.551373	0.095879
11347		9.824041	-0.068745	0.892905	0.003533	0.001697	-0.004580	1.000000	0.000044	0.000021	-0.000057	-0.083292	0.048052	0.995366	-0.553379	-0.832907	-0.006098	0.828755	-0.551323	0.095965
11348		9.824637	-0.087882	0.872419	-0.001795	0.003223	-0.004922	1.000000	-0.000022	0.000040	-0.000062	-0.083360	0.048115	0.995357	-0.553448	-0.832862	-0.006091	0.828702	-0.551386	0.096056
11349		9.799890	-0.087302	0.899726	-0.000831	0.000096	-0.004516	1.000000	-0.000010	0.000001	-0.000056	-0.083366	0.048112	0.995357	-0.553450	-0.832860	-0.006097	0.828700	-0.551388	0.096060
11350		9.843198	-0.089232	0.904594	0.000506	0.004368	-0.005075	1.000000	0.000006	0.000055	-0.000063	-0.083414	0.048186	0.995349	-0.553456	-0.832856	-0.006062	0.828691	-0.551388	0.096141
11351		9.832518	-0.106732	0.910295	-0.000741	0.008613	-0.004509	1.000000	-0.000009	0.000108	-0.000056	-0.083605	0.048313	0.995327	-0.553494	-0.832831	-0.006067	0.828646	-0.551415	0.096370
11352		9.854075	-0.106901	0.913881	0.005557	0.002874	-0.006236	1.000000	0.000069	0.000036	-0.000078	-0.083699	0.048393	0.995315	-0.553385	-0.832904	-0.006040	0.828710	-0.551298	0.096493
11353		9.847704	-0.021467	0.861413	-0.002718	0.006934	-0.007983	1.000000	-0.000034	0.000087	-0.000100	-0.083768	0.048558	0.995302	-0.553439	-0.832869	-0.005946	0.828667	-0.551337	0.096641
11354		9.775394	-0.082204	0.880230	-0.006205	0.004736	-0.008537	1.000000	-0.000078	0.000059	-0.000107	-0.083807	0.048713	0.995291	-0.553597	-0.832764	-0.005856	0.828557	-0.551480	0.096759
11355		9.816104	-0.099252	0.900019	0.003784	-0.001100	-0.005368	1.000000	0.000047	-0.000014	-0.000067	-0.083753	0.048721	0.995295	-0.553545	-0.832799	-0.005814	0.828597	-0.551427	0.096719
11356		9.821072	-0.078372	0.908198	0.004580	-0.001561	-0.005078	1.000000	0.000057	-0.000020	-0.000063	-0.083726	0.048714	0.995297	-0.553462	-0.832854	-0.005794	0.828655	-0.551345	0.096693
11357		9.828822	-0.066902	0.925647	0.005618	-0.002423	-0.007507	1.000000	0.000070	-0.000030	-0.000094	-0.083620	0.048758	0.995304	-0.553405	-0.832893	-0.005693	0.828704	-0.551282	0.096630
11358		9.828947	-0.065463	0.924422	0.002099	-0.007606	-0.003477	1.000000	0.000026	-0.000095	-0.000043	-0.083463	0.048632	0.995323	-0.553365	-0.832919	-0.005706	0.828746	-0.551254	0.096430
11359		9.818662	-0.064609	0.895125	0.005836	-0.008206	-0.003712	1.000000	0.000073	-0.000103	-0.000046	-0.083303	0.048509	0.995343	-0.553262	-0.832988	-0.005708	0.828831	-0.551161	0.096229
11360		9.797753	-0.101303	0.901968	0.007879	-0.003173	-0.000600	1.000000	0.000098	-0.000040	-0.000007	-0.083257	0.048389	0.995353	-0.553112	-0.833087	-0.005765	0.828936	-0.551022	0.096125
11361		9.841237	-0.103762	0.904932	0.015805	-0.008159	-0.001924	1.000000	0.000198	-0.000102	-0.000024	-0.083098	0.048240	0.995373	-0.552841	-0.833266	-0.005770	0.829133	-0.550763	0.095912
11362		9.854469	-0.068226	0.884539	0.009785	-0.002236	-0.005574	1.000000	0.000122	-0.000028	-0.000070	-0.083060	0.048238	0.995376	-0.552658	-0.833388	-0.005729	0.829259	-0.550579	0.095880
11363		9.838175	-0.077523	0.907971	0.002351	-0.000451	-0.007758	1.000000	0.000029	-0.000006	-0.000097	-0.082985	0.048314	0.995379	-0.552663	-0.833386	-0.005625	0.829263	-0.550576	0.095860
11364		9.810947	-0.073581	0.918059	0.006171	-0.002490	-0.004495	1.000000	0.000077	-0.000031	-0.000056	-0.082957	0.048286	0.995383	-0.552553	-0.833459	-0.005620	0.829339	-0.550468	0.095822
11365		9.814235	-0.095851	0.913052	0.002509	-0.000933	-0.002691	1.000000	0.000031	-0.000012	-0.000034	-0.082979	0.048247	0.995383	-0.552532	-0.833472	-0.005662	0.829351	-0.550451	0.095818
11366		9.806578	-0.104672	0.894788	0.002515	-0.002025	-0.005165	1.000000	0.000031	-0.000025	-0.000065	-0.082928	0.048243	0.995387	-0.552522	-0.833479	-0.005636	0.829363	-0.550441	0.095774
11367		9.828103	-0.079425	0.871962	0.002596	-0.002160	-0.006071	1.000000	0.000032	-0.000027	-0.000076	-0.082889	0.048249	0.995390	-0.552479	-0.833508	-0.005605	0.829395	-0.550397	0.095745
11368		9.844393	-0.085922	0.880037	0.000178	0.004897	-0.001451	1.000000	0.000002	0.000061	-0.000018	-0.082995	0.048256	0.995381	-0.552492	-0.833499	-0.005658	0.829376	-0.550410	0.095838
11369		9.795627	-0.088081	0.881874	0.003937	-0.000284	-0.004702	1.000000	0.000049	-0.000004	-0.000059	-0.082952	0.048269	0.995384	-0.552457	-0.833523	-0.005620	0.829404	-0.550373	0.095809
11370		9.808946	-0.077767	0.886992	0.005611	-0.001341	-0.005028	1.000000	0.000070	-0.000017	-0.000063	-0.082894	0.048266	0.995389	-0.552361	-0.833587	-0.005579	0.829473	-0.550276	0.095759
11371		9.811325	-0.072911	0.910039	0.004898	-0.002317	-0.001819	1.000000	0.000061	-0.000029	-0.000023	-0.082896	0.048180	0.995393	-0.552260	-0.833653	-0.005641	0.829540	-0.550183	0.095714
11372		9.813965	-0.056777	0.894274	0.001568	-0.003693	-0.001710	1.000000	0.000020	-0.000046	-0.000021	-0.082888	0.048083	0.995398	-0.552263	-0.833650	-0.005717	0.829539	-0.550195	0.095654
11373		9.833888	-0.075197	0.857632	0.000788	-0.006721	-0.002542	1.000000	0.000010	-0.000084	-0.000032	-0.082757	0.047957	0.995415	-0.552273	-0.833644	-0.005752	0.829546	-0.550217	0.095476
11374		9.828390	-0.073631	0.869228	-0.000945	-0.001457	-0.003424	1.000000	-0.000012	-0.000018	-0.000043	-0.082706	0.047919	0.995421	-0.552309	-0.833620	-0.005760	0.829527	-0.550257	0.095412
11375		9.828896	-0.104594	0.886382	0.000922	-0.001106	-0.005744	1.000000	0.000012	-0.000014	-0.000072	-0.082653	0.047927	0.995425	-0.552288	-0.833634	-0.005721	0.829546	-0.550234	0.095372
11376		9.808929	-0.058868	0.896542	0.005628	-0.004831	-0.005568	1.000000	0.000070	-0.000060	-0.000070	-0.082502	0.047890	0.995440	-0.552203	-0.833690	-0.005658	0.829617	-0.550152	0.095226
11377		9.830895	-0.047478	0.859458	0.003979	-0.001004	-0.002952	1.000000	0.000050	-0.000013	-0.000037	-0.082436	0.047857	0.995447	-0.552175	-0.833709	-0.005646	0.829643	-0.550126	0.095153
11378		9.864273	-0.100286	0.885247	0.000996	-0.000148	-0.004176	1.000000	0.000012	-0.000002	-0.000052	-0.082425	0.047852	0.995448	-0.552175	-0.833709	-0.005644	0.829644	-0.550126	0.095141
11379		9.872429	-0.083876	0.857608	0.008386	0.000089	-0.008143	1.000000	0.000105	0.000001	-0.000102	-0.082367	0.047942	0.995448	-0.552060	-0.833786	-0.005523	0.829726	-0.550002	0.095143
11380		9.816564	-0.006221	0.851907	-0.007798	0.010804	-0.008760	1.000000	-0.000097	0.000135	-0.000110	-0.082528	0.048182	0.995423	-0.552239	-0.833668	-0.005433	0.829591	-0.550160	0.095409
11381		9.790835	-0.105391	0.909822	0.000886	0.005870	-0.004659	1.000000	0.000011	0.000073	-0.000058	-0.082645	0.048277	0.995409	-0.552263	-0.833652	-0.005420	0.829563	-0.550175	0.095559
11382		9.809654	-0.114258	0.934985	0.002895	0.001879	-0.006676	1.000000	0.000036	0.000023	-0.000083	-0.082674	0.048352	0.995403	-0.552218	-0.833682	-0.005369	0.829590	-0.550124	0.095625
11383		9.841552	-0.069836	0.908601	-0.001101	-0.000985	-0.008486	1.000000	-0.000014	-0.000012	-0.000106	-0.082578	0.048422	0.995408	-0.552259	-0.833656	-0.005261	0.829572	-0.550158	0.095583
11384		9.847413	-0.075383	0.888892	-0.003133	0.000232	-0.008759	1.000000	-0.000039	0.000003	-0.000109	-0.082522	0.048521	0.995407	-0.552363	-0.833587	-0.005160	0.829509	-0.550252	0.095591
11385		9.841874	-0.072631	0.901027	-0.000211	-0.003976	-0.007170	1.000000	-0.000003	-0.000050	-0.000090	-0.082429	0.048527	0.995415	-0.552391	-0.833569	-0.005106	0.829499	-0.550279	0.095516
11386		9.807493	-0.092554	0.878703	0.002918	-0.002909	-0.002814	1.000000	0.000036	-0.000036	-0.000035	-0.082425	0.048459	0.995418	-0.552354	-0.833594	-0.005156	0.829525	-0.550248	0.095475
11387		9.824385	-0.131021	0.903658	0.008064	0.000631	-0.004517	1.000000	0.000101	0.000008	-0.000056	-0.082445	0.048485	0.995415	-0.552254	-0.833660	-0.005134	0.829589	-0.550146	0.095508
11388		9.866690	-0.068070	0.873198	0.005681	0.000915	-0.007858	1.000000	0.000071	0.000011	-0.000098	-0.082426	0.048570	0.995413	-0.552151	-0.833729	-0.005041	0.829660	-0.550034	0.095539
11389		9.823293	-0.063216	0.869407	-0.002357	0.003257	-0.007926	1.000000	-0.000029	0.000041	-0.000099	-0.082471	0.048682	0.995404	-0.552198	-0.833698	-0.004977	0.829624	-0.550070	0.095638
11390		9.817925	-0.067250	0.875366	-0.006667	-0.000165	-0.008585	1.000000	-0.000083	-0.000002	-0.000107	-0.082398	0.048782	0.995405	-0.552411	-0.833558	-0.004878	0.829489	-0.550275	0.095631
11391		9.801871	-0.083148	0.892452	-0.007639	0.002958	-0.008994	1.000000	-0.000095	0.000037	-0.000112	-0.082371	0.048920	0.995400	-0.552602	-0.833432	-0.004769	0.829365	-0.550453	0.095684
11392		9.834789	-0.102746	0.901217	-0.004838	-0.000396	-0.008248	1.000000	-0.000060	-0.000005	-0.000103	-0.082288	0.049001	0.995403	-0.552752	-0.833333	-0.004672	0.829273	-0.550595	0.095659
11393		9.834032	-0.062146	0.890321	-0.004385	-0.003088	-0.006625	1.000000	-0.000055	-0.000039	-0.000083	-0.082229	0.049005	0.995408	-0.552854	-0.833265	-0.004648	0.829211	-0.550698	0.095611
11394		9.841982	-0.039326	0.868747	-0.014269	-0.004593	-0.004915	1.000000	-0.000178	-0.000057	-0.000061	-0.082139	0.048947	0.995418	-0.553144	-0.833073	-0.004680	0.829027	-0.550994	0.095502
11395		9.848430	-0.077913	0.866333	-0.018167	0.002732	-0.006906	1.000000	-0.000227	0.000034	-0.000086	-0.082122	0.049054	0.995414	-0.553607	-0.832765	-0.004634	0.828719	-0.551449	0.095546
11396		9.816352	-0.112579	0.900307	-0.009024	0.001587	-0.005231	1.000000	-0.000113	0.000020	-0.000065	-0.082169	0.049091	0.995409	-0.553797	-0.832639	-0.004651	0.828588	-0.551636	0.095603
11397		9.805411	-0.097603	0.886490	0.003818	-0.005691	-0.008372	1.000000	0.000048	-0.000071	-0.000105	-0.082017	0.049095	0.995421	-0.553742	-0.832676	-0.004557	0.828639	-0.551580	0.095480
11398		9.812352	-0.046724	0.892773	0.008535	-0.004240	-0.007838	1.000000	0.000107	-0.000053	-0.000098	-0.081883	0.049112	0.995431	-0.553604	-0.832768	-0.004452	0.828745	-0.551439	0.095378
11399		9.804299	-0.041229	0.887656	0.004812	-0.006043	-0.005673	1.000000	0.000060	-0.000076	-0.000071	-0.081759	0.049056	0.995444	-0.553524	-0.832822	-0.004420	0.828811	-0.551363	0.095244
11400		9.823860	-0.063829	0.896638	0.000940	-0.003504	-0.003809	1.000000	0.000012	-0.000044	-0.000048	-0.081732	0.048997	0.995449	-0.553522	-0.832822	-0.004455	0.828814	-0.551367	0.095189
11401		9.854292	-0.081539	0.888076	0.006483	-0.000833	-0.003168	1.000000	0.000081	-0.000010	-0.000040	-0.081744	0.048959	0.995450	-0.553399	-0.832904	-0.004479	0.828895	-0.551248	0.095179
11402		9.818659	-0.067589	0.900941	0.009377	-0.005419	-0.005799	1.000000	0.000117	-0.000068	-0.000072	-0.081616	0.048920	0.995463	-0.553248	-0.833005	-0.004423	0.829009	-0.551099	0.095051
11403		9.791154	-0.038913	0.885556	0.002068	-0.005804	-0.002738	1.000000	0.000026	-0.000073	-0.000034	-0.081523	0.048810	0.995476	-0.553234	-0.833014	-0.004463	0.829027	-0.551095	0.094913
11404		9.818524	-0.040235	0.874063	0.002205	-0.002585	-0.004007	1.000000	0.000028	-0.000032	-0.000050	-0.081460	0.048760	0.995483	-0.553179	-0.833051	-0.004462	0.829070	-0.551044	0.094833
11405		9.860422	-0.084365	0.865713	-0.014063	0.006035	-0.008649	1.000000	-0.000176	0.000075	-0.000108	-0.081530	0.048942	0.995469	-0.553536	-0.832814	-0.004390	0.828825	-0.551386	0.094990
11406		9.895182	-0.086585	0.912194	-0.004275	-0.001555	-0.007706	1.000000	-0.000053	-0.000019	-0.000096	-0.081438	0.048991	0.995474	-0.553654	-0.832735	-0.004311	0.828755	-0.551500	0.094940
11407		9.836311	0.011942	0.858188	-0.004630	0.008941	-0.007583	1.000000	-0.000058	0.000112	-0.000095	-0.081604	0.049183	0.995451	-0.553788	-0.832647	-0.004259	0.828649	-0.551616	0.095185
11408		9.756887	-0.077873	0.891518	-0.011381	0.008697	-0.008385	1.000000	-0.000142	0.000109	-0.000105	-0.081727	0.049404	0.995429	-0.554121	-0.832426	-0.004180	0.828414	-0.551930	0.095408
11409		9.795101	-0.091324	0.895661	0.000866	0.001995	-0.009408	1.000000	0.000011	0.000025	-0.000118	-0.081695	0.049540	0.995425	-0.554146	-0.832409	-0.004052	0.828401	-0.551942	0.095457
11410		9.853716	-0.041707	0.866964	-0.014312	0.007724	-0.010326	1.000000	-0.000179	0.000097	-0.000129	-0.081785	0.049768	0.995407	-0.554463	-0.832199	-0.003948	0.828180	-0.552239	0.095657
11411		9.845427	-0.053941	0.897182	-0.016022	0.013555	-0.013848	1.000000	-0.000200	0.000169	-0.000173	-0.081944	0.050153	0.995374	-0.554835	-0.831952	-0.003758	0.827915	-0.552577	0.096000
11412		9.823688	-0.068380	0.928417	-0.002350	0.002149	-0.010380	1.000000	-0.000029	0.000027	-0.000130	-0.081924	0.050313	0.995368	-0.554937	-0.831884	-0.003625	0.827848	-0.552664	0.096072
11413		9.801440	-0.051278	0.940495	0.004185	-0.000685	-0.007407	1.000000	0.000052	-0.000009	-0.000093	-0.081843	0.050371	0.995372	-0.554894	-0.831914	-0.003526	0.827886	-0.552614	0.096037
11414		9.787243	-0.107963	0.914200	0.009315	-0.006365	-0.007363	1.000000	0.000116	-0.000080	-0.000092	-0.081675	0.050340	0.995387	-0.554697	-0.832045	-0.003436	0.828034	-0.552419	0.095881
11415		9.848496	-0.073367	0.937730	0.017581	-0.006897	-0.005075	1.000000	0.000220	-0.000086	-0.000063	-0.081544	0.050251	0.995402	-0.554317	-0.832298	-0.003393	0.828301	-0.552046	0.095724
11416		9.824776	-0.062643	0.872321	0.015050	-0.003578	-0.004313	1.000000	0.000188	-0.000045	-0.000054	-0.081482	0.050199	0.995410	-0.554023	-0.832495	-0.003368	0.828504	-0.551754	0.095645
11417		9.819131	-0.042141	0.852480	0.012235	-0.004302	-0.002946	1.000000	0.000153	-0.000054	-0.000037	-0.081394	0.050110	0.995421	-0.553780	-0.832656	-0.003365	0.828675	-0.551519	0.095523
11418		9.829789	-0.059353	0.911145	0.009038	0.002693	-0.003744	1.000000	0.000113	0.000034	-0.000047	-0.081433	0.050136	0.995417	-0.553613	-0.832767	-0.003347	0.828783	-0.551349	0.095571
11419		9.838613	-0.093855	0.933260	0.006053	0.003535	-0.004964	1.000000	0.000076	0.000044	-0.000062	-0.081499	0.050207	0.995408	-0.553553	-0.832808	-0.003317	0.828817	-0.551281	0.095665
11420		9.829131	-0.043019	0.926356	0.007994	-0.000318	-0.006073	1.000000	0.000100	-0.000004	-0.000076	-0.081494	0.050238	0.995407	-0.553411	-0.832902	-0.003271	0.828912	-0.551135	0.095679
11421		9.817786	-0.021747	0.920140	0.002099	0.001041	-0.002558	1.000000	0.000026	0.000013	-0.000032	-0.081565	0.050217	0.995402	-0.553398	-0.832910	-0.003326	0.828913	-0.551125	0.095726
11422		9.839980	-0.035791	0.908975	-0.008617	0.004754	-0.004995	1.000000	-0.000108	0.000059	-0.000062	-0.081633	0.050302	0.995392	-0.553619	-0.832763	-0.003319	0.828759	-0.551339	0.095829
11423		9.833866	-0.096993	0.888283	-0.005054	0.001664	-0.005706	1.000000	-0.000063	0.000021	-0.000071	-0.081641	0.050367	0.995388	-0.553801	-0.832643	-0.003291	0.828637	-0.551515	0.095871
11424		9.826667	-0.042260	0.904828	-0.002031	0.001398	-0.007133	1.000000	-0.000025	0.000017	-0.000089	-0.081659	0.050438	0.995383	-0.553840	-0.832617	-0.003246	0.828609	-0.551548	0.095925
11425		9.804409	-0.025858	0.916686	-0.005463	-0.001531	-0.005939	1.000000	-0.000068	-0.000019	-0.000074	-0.081619	0.050456	0.995386	-0.554006	-0.832507	-0.003228	0.828502	-0.551713	0.095901
11426		9.829605	-0.048815	0.913751	-0.004061	-0.002559	-0.007763	1.000000	-0.000051	-0.000032	-0.000097	-0.081509	0.050497	0.995393	-0.554138	-0.832419	-0.003147	0.828425	-0.551841	0.095832
11427		9.846590	-0.068301	0.907240	-0.003539	0.000885	-0.004221	1.000000	-0.000044	0.000011	-0.000053	-0.081518	0.050525	0.995390	-0.554308	-0.832306	-0.003149	0.828310	-0.552009	0.095855
11428		9.822346	-0.063322	0.888288	0.005557	-0.003585	-0.002185	1.000000	0.000069	-0.000045	-0.000027	-0.081466	0.050433	0.995399	-0.554218	-0.832366	-0.003186	0.828375	-0.551928	0.095761
11429		9.838070	-0.038111	0.877661	0.003332	-0.003778	-0.000468	1.000000	0.000042	-0.000047	-0.000006	-0.081433	0.050305	0.995409	-0.554181	-0.832390	-0.003270	0.828403	-0.551903	0.095662
11430		9.825690	-0.078419	0.888912	0.002225	-0.003688	-0.006468	1.000000	0.000028	-0.000046	-0.000081	-0.081333	0.050298	0.995417	-0.554159	-0.832405	-0.003218	0.828428	-0.551881	0.095575
11431		9.825490	-0.070185	0.895058	0.006392	-0.003467	-0.004543	1.000000	0.000080	-0.000043	-0.000057	-0.081274	0.050251	0.995424	-0.554029	-0.832491	-0.003210	0.828520	-0.551755	0.095500
11432		9.822343	-0.052425	0.892398	0.006466	0.001562	-0.005088	1.000000	0.000081	0.000020	-0.000064	-0.081305	0.050295	0.995419	-0.553952	-0.832543	-0.003181	0.828569	-0.551673	0.095551
11433		9.871196	-0.065986	0.922872	0.006755	0.000437	-0.006053	1.000000	0.000084	0.000005	-0.000076	-0.081354	0.050333	0.995414	-0.553829	-0.832625	-0.003162	0.828647	-0.551546	0.095613
11434		9.850669	0.009850	0.863978	0.004637	0.001784	-0.005421	1.000000	0.000058	0.000022	-0.000068	-0.081355	0.050375	0.995411	-0.553726	-0.832693	-0.003115	0.828715	-0.551439	0.095638
11435		9.770507	-0.053044	0.924560	-0.007342	0.008629	-0.009766	1.000000	-0.000092	0.000108	-0.000122	-0.081467	0.050605	0.995391	-0.553898	-0.832579	-0.003006	0.828589	-0.551590	0.095858
11436		9.796754	-0.102855	0.895449	0.007729	0.002485	-0.005284	1.000000	0.000097	0.000031	-0.000066	-0.081499	0.050661	0.995385	-0.553764	-0.832668	-0.002962	0.828675	-0.551450	0.095916
11437		9.813786	-0.052074	0.930190	0.009292	-0.002885	-0.006805	1.000000	0.000116	-0.000036	-0.000085	-0.081409	0.050677	0.995392	-0.553621	-0.832763	-0.002881	0.828780	-0.551305	0.095850
11438		9.851199	-0.026986	0.921491	0.006580	-0.006133	-0.004418	1.000000	0.000082	-0.000077	-0.000055	-0.081275	0.050596	0.995407	-0.553510	-0.832837	-0.002861	0.828867	-0.551200	0.095695
11439		9.846636	-0.045362	0.911590	0.003280	-0.005848	-0.004491	1.000000	0.000041	-0.000073	-0.000056	-0.081124	0.050528	0.995422	-0.553501	-0.832844	-0.002833	0.828888	-0.551197	0.095531
11440		9.834364	-0.085542	0.922427	0.009949	-0.005455	-0.002781	1.000000	0.000124	-0.000068	-0.000035	-0.081036	0.050416	0.995435	-0.553290	-0.832984	-0.002854	0.829037	-0.550996	0.095397
11441		9.793694	-0.084838	0.933456	0.014744	-0.004130	-0.003150	1.000000	0.000184	-0.000052	-0.000039	-0.080981	0.050339	0.995444	-0.553022	-0.833161	-0.002857	0.829221	-0.550734	0.095309
11442		9.825037	-0.034222	0.912345	0.022456	-0.008675	-0.001746	1.000000	0.000281	-0.000108	-0.000022	-0.080864	0.050156	0.995462	-0.552530	-0.833488	-0.002889	0.829561	-0.550257	0.095112
11443		9.838777	-0.018951	0.870322	0.011225	-0.005644	-0.005439	1.000000	0.000140	-0.000071	-0.000068	-0.080700	0.050112	0.995478	-0.552365	-0.833598	-0.002815	0.829687	-0.550094	0.094952
11444		9.842283	-0.052107	0.903486	0.006812	-0.001390	-0.006767	1.000000	0.000085	-0.000017	-0.000085	-0.080617	0.050139	0.995483	-0.552219	-0.833695	-0.002730	0.829792	-0.549945	0.094898
11445		9.793714	-0.053876	0.903663	0.006721	-0.008098	-0.006030	1.000000	0.000084	-0.000101	-0.000075	-0.080431	0.050065	0.995502	-0.552114	-0.833764	-0.002677	0.829880	-0.549846	0.094703
11446		9.799208	-0.046264	0.895935	0.008760	-0.009310	-0.005754	1.000000	0.000109	-0.000116	-0.000072	-0.080215	0.049967	0.995524	-0.551951	-0.833872	-0.002621	0.830009	-0.549691	0.094468
11447		9.826968	-0.053488	0.876542	0.006744	-0.006424	-0.006212	1.000000	0.000084	-0.000080	-0.000078	-0.080063	0.049911	0.995539	-0.551801	-0.833972	-0.002566	0.830124	-0.549545	0.094311
11448		9.815723	-0.031738	0.868315	0.009432	-0.008922	-0.006303	1.000000	0.000118	-0.000112	-0.000079	-0.079878	0.049833	0.995558	-0.551649	-0.834072	-0.002512	0.830242	-0.549400	0.094114
11449		9.816814	-0.050999	0.845035	0.009004	-0.009902	-0.001603	1.000000	0.000113	-0.000124	-0.000020	-0.079723	0.049640	0.995580	-0.551475	-0.834188	-0.002567	0.830373	-0.549242	0.093879
11450		9.824998	-0.035466	0.814433	0.008091	-0.013772	-0.003080	1.000000	0.000101	-0.000172	-0.000039	-0.079472	0.049428	0.995611	-0.551343	-0.834275	-0.002591	0.830485	-0.549129	0.093553
11451		9.835492	-0.027425	0.846018	-0.000586	-0.008492	-0.002971	1.000000	-0.000007	-0.000106	-0.000037	-0.079324	0.049282	0.995630	-0.551367	-0.834259	-0.002634	0.830483	-0.549166	0.093349
11452		9.847082	-0.034891	0.811975	-0.007364	-0.006362	-0.005704	1.000000	-0.000092	-0.000080	-0.000071	-0.079180	0.049220	0.995645	-0.551524	-0.834155	-0.002624	0.830393	-0.549329	0.093194
11453		9.833143	-0.022723	0.826169	-0.011498	-0.006188	-0.003419	1.000000	-0.000144	-0.000077	-0.000043	-0.079090	0.049118	0.995657	-0.551801	-0.833972	-0.002691	0.830217	-0.549617	0.093062
11454		9.836781	-0.056837	0.858997	-0.008743	-0.003652	-0.004067	1.000000	-0.000109	-0.000046	-0.000051	-0.079041	0.049063	0.995663	-0.552012	-0.833832	-0.002733	0.830082	-0.549834	0.092990
11455		9.825165	-0.040667	0.897198	-0.007423	-0.004547	-0.004985	1.000000	-0.000093	-0.000057	-0.000062	-0.078924	0.049017	0.995675	-0.552198	-0.833708	-0.002728	0.829969	-0.550025	0.092867
11456		9.838165	-0.012061	0.869582	-0.007884	-0.005929	-0.004493	1.000000	-0.000099	-0.000074	-0.000056	-0.078800	0.048939	0.995688	-0.552382	-0.833587	-0.002744	0.829858	-0.550216	0.092720
11457		9.815154	-0.045777	0.859919	-0.008185	-0.007590	-0.005805	1.000000	-0.000102	-0.000095	-0.000073	-0.078595	0.048864	0.995708	-0.552558	-0.833470	-0.002713	0.829761	-0.550399	0.092507
11458		9.815050	-0.037828	0.864855	-0.003955	-0.009180	-0.004602	1.000000	-0.000049	-0.000115	-0.000058	-0.078382	0.048749	0.995731	-0.552684	-0.833387	-0.002705	0.829697	-0.550536	0.092266
11459		9.831919	-0.050859	0.863960	-0.000080	-0.003758	-0.003835	1.000000	-0.000001	-0.000047	-0.000048	-0.078316	0.048687	0.995739	-0.552702	-0.833375	-0.002722	0.829691	-0.550560	0.092176
11460		9.873953	-0.088533	0.861376	-0.005732	-0.002815	-0.003028	1.000000	-0.000072	-0.000035	-0.000038	-0.078307	0.048623	0.995743	-0.552854	-0.833273	-0.002788	0.829590	-0.550719	0.092132
11461		9.844560	-0.003009	0.804501	0.005002	-0.003555	-0.005176	1.000000	0.000063	-0.000044	-0.000065	-0.078214	0.048591	0.995752	-0.552768	-0.833330	-0.002753	0.829656	-0.550635	0.092038
11462		9.798797	-0.015006	0.815969	-0.011098	0.007918	-0.005138	1.000000	-0.000139	0.000099	-0.000064	-0.078374	0.048712	0.995733	-0.552991	-0.833183	-0.002766	0.829493	-0.550848	0.092237
11463		9.792693	-0.092993	0.880002	-0.000307	0.002405	-0.003427	1.000000	-0.000004	0.000030	-0.000043	-0.078459	0.048722	0.995726	-0.552999	-0.833177	-0.002806	0.829479	-0.550856	0.092314
11464		9.819037	-0.073449	0.891016	0.005656	0.002014	-0.005381	1.000000	0.000071	0.000025	-0.000067	-0.078488	0.048774	0.995721	-0.552915	-0.833233	-0.002769	0.829533	-0.550767	0.092366
11465		9.806656	-0.020065	0.866937	0.007194	-0.003933	-0.004246	1.000000	0.000090	-0.000049	-0.000053	-0.078426	0.048720	0.995729	-0.552807	-0.833305	-0.002767	0.829611	-0.550663	0.092285
11466		9.853063	-0.019670	0.840838	0.003401	-0.005599	-0.001178	1.000000	0.000043	-0.000070	-0.000015	-0.078354	0.048582	0.995741	-0.552773	-0.833327	-0.002840	0.829640	-0.550641	0.092149
11467		9.849451	-0.070669	0.848681	0.008124	-0.005238	-0.003114	1.000000	0.000102	-0.000065	-0.000039	-0.078242	0.048487	0.995755	-0.552625	-0.833425	-0.002841	0.829749	-0.550501	0.092004
11468		9.787390	-0.076417	0.850859	0.013594	-0.003679	0.002806	1.000000	0.000170	-0.000046	0.000035	-0.078257	0.048289	0.995763	-0.552356	-0.833603	-0.002984	0.829927	-0.550249	0.091908
11469		9.819771	-0.077271	0.879374	0.018757	-0.003620	0.000565	1.000000	0.000234	-0.000045	0.000007	-0.078236	0.048141	0.995772	-0.551989	-0.833846	-0.003056	0.830173	-0.549895	0.091810
11470		9.864569	-0.031345	0.850407	0.016408	-0.000010	-0.003134	1.000000	0.000205	-0.000000	-0.000039	-0.078266	0.048111	0.995771	-0.551642	-0.834075	-0.003060	0.830401	-0.549549	0.091819
11471		9.854581	-0.056097	0.848306	0.008445	0.004951	-0.001829	1.000000	0.000106	0.000062	-0.000023	-0.078387	0.048125	0.995761	-0.551467	-0.834191	-0.003095	0.830506	-0.549372	0.091929
11472		9.821121	-0.039056	0.886203	0.003482	0.001111	-0.001919	1.000000	0.000044	0.000014	-0.000024	-0.078426	0.048097	0.995759	-0.551442	-0.834207	-0.003138	0.830518	-0.549350	0.091946
11473		9.816394	-0.057923	0.878488	0.001183	0.004016	-0.003878	1.000000	0.000015	0.000050	-0.000048	-0.078507	0.048144	0.995750	-0.551443	-0.834207	-0.003144	0.830510	-0.549346	0.092040
