// Start Time: Unknown
// Update Rate: 40.0Hz
// Filter Profile: human (46.1)
// Firmware Version: 4.3.4
PacketCounter	SampleTimeFine	Acc_X	Acc_Y	Acc_Z	Gyr_X	Gyr_Y	Gyr_Z	OriInc_q0	OriInc_q1	OriInc_q2	OriInc_q3	Mat[1][1]	Mat[2][1]	Mat[3][1]	Mat[1][2]	Mat[2][2]	Mat[3][2]	Mat[1][3]	Mat[2][3]	Mat[3][3]
10839		4.293103	-0.105142	11.470112	0.003317	-0.066913	0.269054	0.999994	0.000041	-0.000836	0.003363	0.590160	0.727581	0.349767	-0.774860	0.632089	-0.007446	-0.226502	-0.266626	0.936807
10840		3.856773	0.139743	12.015788	-0.305818	-0.393845	0.040120	0.999980	-0.003823	-0.004923	0.000501	0.587096	0.725579	0.358962	-0.773674	0.633408	-0.014950	-0.238217	-0.268942	0.933232
10841		3.467650	-0.298839	12.293572	-0.514057	-0.634664	-0.131993	0.999947	-0.006426	-0.007933	-0.001650	0.585710	0.719190	0.373778	-0.768553	0.639270	-0.025703	-0.257430	-0.272213	0.927162
10842		3.413608	-0.225606	12.837292	-0.644699	-0.675311	-0.192488	0.999929	-0.008059	-0.008441	-0.002406	0.584887	0.711520	0.389417	-0.761411	0.647110	-0.038758	-0.279573	-0.273838	0.920246
10843		3.347266	0.499702	12.921347	-0.817910	-0.545364	-0.252907	0.999920	-0.010224	-0.006817	-0.003161	0.585810	0.703801	0.401859	-0.751768	0.657131	-0.054986	-0.302773	-0.269894	0.914049
10844		4.172388	0.829858	12.830677	-0.798239	-0.222301	-0.358306	0.999936	-0.009978	-0.002779	-0.004479	0.591066	0.696575	0.406725	-0.740327	0.668664	-0.069314	-0.320245	-0.260140	0.910917
10845		4.174235	1.201628	11.682643	-0.833280	0.094618	-0.399871	0.999933	-0.010416	0.001183	-0.004998	0.599719	0.690596	0.404246	-0.727674	0.680817	-0.083539	-0.332909	-0.244059	0.910828
10846		4.401066	1.748329	10.796487	-0.859704	0.164626	-0.418068	0.999926	-0.010746	0.002058	-0.005226	0.609463	0.684445	0.400111	-0.714263	0.693045	-0.097560	-0.344069	-0.226326	0.911259
10847		4.458977	2.176714	10.122370	-0.888154	0.108200	-0.485815	0.999919	-0.011102	0.001352	-0.006073	0.620111	0.676340	0.397526	-0.699318	0.706199	-0.110623	-0.355551	-0.209398	0.910898
10848		4.567976	2.019494	10.023869	-0.799863	0.004059	-0.519368	0.999929	-0.009998	0.000051	-0.006492	0.630582	0.666527	0.397629	-0.684401	0.719145	-0.120109	-0.366009	-0.196399	0.909651
10849		5.891380	2.330367	10.417714	-0.619389	0.040406	-0.526263	0.999948	-0.007742	0.000505	-0.006578	0.641629	0.656188	0.397153	-0.670853	0.731121	-0.124170	-0.371845	-0.186760	0.909314
10850		6.370901	2.711345	9.611434	-0.464777	0.192420	-0.489242	0.999962	-0.005810	0.002405	-0.006115	0.653513	0.646453	0.393724	-0.659214	0.741720	-0.123645	-0.371964	-0.178745	0.910875
10851		6.045095	2.552384	8.572061	-0.196794	0.057362	-0.268851	0.999991	-0.002460	0.000717	-0.003361	0.660526	0.639351	0.393619	-0.653589	0.747653	-0.117628	-0.369496	-0.179569	0.911717
10852		6.838708	3.215157	8.493118	0.286591	-0.076959	-0.160379	0.999991	0.003582	-0.000962	-0.002005	0.664550	0.632940	0.397191	-0.654103	0.749723	-0.100318	-0.361279	-0.193137	0.912236
10853		6.337929	2.836460	8.118075	0.505130	-0.195626	0.133183	0.999976	0.006314	-0.002445	0.001665	0.662724	0.630510	0.404048	-0.661249	0.745948	-0.079451	-0.351493	-0.214522	0.911281
10854		7.515184	1.453574	8.623907	0.913636	-0.366104	0.325577	0.999916	0.011420	-0.004576	0.004070	0.656223	0.629804	0.415594	-0.674776	0.736303	-0.050346	-0.337711	-0.247395	0.908156
10855		10.581798	8.015057	9.182863	1.357505	0.071129	-0.333145	0.999847	0.016968	0.000889	-0.004164	0.664161	0.619044	0.419136	-0.680330	0.732893	-0.004402	-0.309906	-0.282227	0.907913
10856		7.719567	2.065481	8.517601	0.359578	0.390182	-0.296441	0.999971	0.004495	0.004877	-0.003705	0.674011	0.609621	0.417219	-0.677980	0.734761	0.021669	-0.293346	-0.297472	0.908547
10857		4.153569	2.468508	11.717334	0.123189	0.360459	-0.331557	0.999980	0.001540	0.004506	-0.004144	0.683634	0.599344	0.416450	-0.673062	0.738379	0.042227	-0.282190	-0.309165	0.908177
10858		5.799988	3.729784	10.649236	-0.021453	0.228511	-0.170067	0.999994	-0.000268	0.002856	-0.002126	0.689796	0.591702	0.417218	-0.669755	0.740365	0.057329	-0.274972	-0.318980	0.906996
10859		5.511882	2.024936	11.017575	0.026505	0.089400	-0.090281	0.999999	0.000331	0.001118	-0.001129	0.693741	0.584560	0.420729	-0.668071	0.740539	0.072681	-0.269080	-0.331498	0.904270
10860		5.538951	2.484555	10.770154	0.051699	0.119716	-0.100982	0.999998	0.000646	0.001496	-0.001262	0.697954	0.577947	0.422892	-0.666317	0.740492	0.087713	-0.262455	-0.343000	0.901925
10861		5.489662	2.439048	10.833758	0.075897	0.054528	-0.080922	0.999999	0.000949	0.000682	-0.001012	0.701321	0.571535	0.426024	-0.665015	0.739794	0.102272	-0.256718	-0.355038	0.898913
10862		5.315332	2.476130	10.688571	0.068442	-0.025607	-0.031395	1.000000	0.000856	-0.000320	-0.000392	0.703273	0.565706	0.430563	-0.664493	0.738350	0.115270	-0.252697	-0.367172	0.895170
10863		5.434021	2.032654	10.822572	0.085568	-0.076188	-0.040923	0.999999	0.001070	-0.000952	-0.000512	0.705008	0.559589	0.435688	-0.663882	0.736819	0.127903	-0.249450	-0.379418	0.890964
10864		5.533541	2.217474	10.586946	0.055525	-0.098638	-0.029472	0.999999	0.000694	-0.001233	-0.000368	0.706293	0.553862	0.440894	-0.663281	0.735402	0.138717	-0.247404	-0.390411	0.886775
10865		5.444782	2.097673	10.571262	0.014557	-0.058295	-0.006124	1.000000	0.000182	-0.000729	-0.000077	0.707322	0.549296	0.444938	-0.662850	0.734085	0.147478	-0.245613	-0.399241	0.883335
10866		5.459350	2.174823	10.519324	-0.014661	-0.030405	0.000511	1.000000	-0.000183	-0.000380	0.000006	0.708294	0.545496	0.448056	-0.662378	0.733035	0.154648	-0.244081	-0.406318	0.880528
10867		5.457900	2.096930	10.507674	-0.064849	0.020956	0.038055	1.000000	-0.000811	0.000262	0.000476	0.708849	0.543248	0.449906	-0.662290	0.732069	0.159519	-0.242703	-0.411043	0.878714
10868		5.444641	2.222953	10.589439	-0.045164	0.037225	0.014513	1.000000	-0.000565	0.000465	0.000181	0.709781	0.541072	0.451057	-0.661937	0.731318	0.164357	-0.240937	-0.415229	0.877231
10869		5.377231	2.156010	10.567367	-0.045564	0.036754	0.023938	1.000000	-0.000570	0.000459	0.000299	0.710468	0.539364	0.452020	-0.661774	0.730533	0.168457	-0.239356	-0.418818	0.875957
10870		5.359296	2.128678	10.631630	-0.007605	0.016088	-0.003498	1.000000	-0.000095	0.000201	-0.000044	0.711406	0.537221	0.453095	-0.661373	0.729807	0.173114	-0.237672	-0.422819	0.874492
10871		5.423881	2.317117	10.614140	-0.014863	-0.000344	0.004802	1.000000	-0.000186	-0.000004	0.000060	0.712039	0.535315	0.454355	-0.661096	0.729129	0.176982	-0.236543	-0.426390	0.873063
10872		5.475755	2.203231	10.564786	-0.025433	-0.007249	0.032784	1.000000	-0.000318	-0.000091	0.000410	0.712114	0.534054	0.455719	-0.661272	0.728263	0.179867	-0.235824	-0.429440	0.871761
10873		5.435871	1.971791	10.573076	-0.018900	-0.000636	0.027093	1.000000	-0.000236	-0.000008	0.000339	0.712256	0.532954	0.456783	-0.661407	0.727475	0.182539	-0.235013	-0.432134	0.870649
10874		5.444378	2.128616	10.612579	0.011878	-0.003760	-0.004903	1.000000	0.000148	-0.000047	-0.000061	0.712836	0.531438	0.457645	-0.661180	0.726853	0.185811	-0.233894	-0.435038	0.869503
10875		5.497433	2.361656	10.456775	-0.014757	0.022664	0.015774	1.000000	-0.000184	0.000283	0.000197	0.713173	0.530752	0.457915	-0.661184	0.726309	0.187915	-0.232851	-0.436782	0.868909
10876		5.531257	2.237571	10.386460	-0.058419	0.064050	0.049792	0.999999	-0.000730	0.000801	0.000622	0.713148	0.531259	0.457367	-0.661556	0.725837	0.188425	-0.231872	-0.436949	0.869087
10877		5.405716	1.829794	10.683336	-0.042544	0.075490	0.028583	0.999999	-0.000532	0.000944	0.000357	0.713485	0.531621	0.456419	-0.661663	0.725520	0.189269	-0.230521	-0.437036	0.869402
10878		5.423813	2.044950	10.790587	-0.002595	0.009021	0.001351	1.000000	-0.000032	0.000113	0.000017	0.713833	0.530912	0.456700	-0.661539	0.725187	0.190973	-0.229803	-0.438448	0.868881
10879		5.474993	2.299304	10.602499	-0.016495	-0.009895	0.012884	1.000000	-0.000206	-0.000124	0.000161	0.713846	0.530323	0.457364	-0.661553	0.724902	0.192001	-0.229721	-0.439630	0.868305
10880		5.520567	2.329069	10.423732	-0.056644	0.005208	0.039028	1.000000	-0.000708	0.000065	0.000488	0.713490	0.530451	0.457770	-0.661812	0.724746	0.191699	-0.230080	-0.439733	0.868158
10881		5.354917	1.595286	10.490625	-0.057668	0.071722	0.038059	0.999999	-0.000721	0.000897	0.000476	0.713506	0.531352	0.456699	-0.662059	0.724638	0.191253	-0.229318	-0.438822	0.868820
10882		5.348782	1.916522	10.895071	0.049759	0.001489	-0.051009	1.000000	0.000622	0.000019	-0.000638	0.714539	0.529977	0.456682	-0.661355	0.724574	0.193913	-0.228131	-0.440587	0.868239
10883		5.424390	2.423643	10.601617	0.048871	-0.042386	-0.040937	1.000000	0.000611	-0.000530	-0.000512	0.715134	0.528387	0.457592	-0.660831	0.724419	0.196264	-0.227785	-0.442746	0.867231
10884		5.498043	2.333648	10.460438	-0.008516	-0.015777	0.006890	1.000000	-0.000106	-0.000197	0.000086	0.715088	0.527994	0.458117	-0.660833	0.724283	0.196756	-0.227921	-0.443437	0.866843
10885		5.478109	1.923103	10.575803	-0.040028	0.020377	0.025516	1.000000	-0.000500	0.000255	0.000319	0.714926	0.528372	0.457934	-0.660996	0.724265	0.196277	-0.227958	-0.443016	0.867048
10886		5.435886	1.935510	10.699030	0.002428	0.004597	-0.016620	1.000000	0.000030	0.000057	-0.000208	0.715340	0.527869	0.457868	-0.660660	0.724355	0.197071	-0.227631	-0.443468	0.866903
10887		5.488167	2.069246	10.574831	0.017824	-0.006560	-0.031086	1.000000	0.000223	-0.000082	-0.000389	0.715908	0.527033	0.457942	-0.660163	0.724488	0.198249	-0.227290	-0.444245	0.866595
10888		5.457372	2.240604	10.571648	-0.012549	0.006025	-0.013121	1.000000	-0.000157	0.000075	-0.000164	0.716232	0.526700	0.457819	-0.659822	0.724735	0.198481	-0.227257	-0.444237	0.866607
10889		5.443650	2.109239	10.523467	-0.033613	0.018328	0.007971	1.000000	-0.000420	0.000229	0.000100	0.716271	0.526910	0.457516	-0.659742	0.724949	0.197964	-0.227367	-0.443639	0.866885
10890		5.369029	1.961303	10.605531	-0.019419	0.012976	-0.007062	1.000000	-0.000243	0.000162	-0.000088	0.716515	0.526816	0.457243	-0.659479	0.725214	0.197866	-0.227360	-0.443316	0.867052
10891		5.427562	2.137214	10.579072	0.004033	-0.008566	-0.017697	1.000000	0.000050	-0.000107	-0.000221	0.716800	0.526324	0.457363	-0.659164	0.725375	0.198326	-0.227376	-0.443637	0.866883
10892		5.397369	2.125850	10.566530	0.005867	-0.007434	-0.014957	1.000000	0.000073	-0.000093	-0.000187	0.717039	0.525915	0.457459	-0.658912	0.725489	0.198751	-0.227355	-0.443937	0.866735
10893		5.452887	2.102936	10.583753	0.007210	-0.005569	-0.010894	1.000000	0.000090	-0.000070	-0.000136	0.717216	0.525619	0.457521	-0.658741	0.725542	0.199119	-0.227290	-0.444199	0.866618
10894		5.473225	2.112196	10.520378	0.011587	-0.003810	-0.018564	1.000000	0.000145	-0.000048	-0.000232	0.717522	0.525221	0.457499	-0.658462	0.725656	0.199630	-0.227137	-0.444485	0.866512
10895		5.385014	2.094840	10.643025	0.007594	-0.000909	-0.022685	1.000000	0.000095	-0.000011	-0.000284	0.717902	0.524796	0.457391	-0.658090	0.725872	0.200069	-0.227012	-0.444634	0.866468
10896		5.456895	2.096846	10.572699	0.017903	-0.005401	-0.018878	1.000000	0.000224	-0.000068	-0.000236	0.718191	0.524405	0.457385	-0.657846	0.725932	0.200654	-0.226806	-0.444997	0.866335
10897		5.431949	2.081851	10.589690	0.028885	-0.008125	-0.033122	1.000000	0.000361	-0.000102	-0.000414	0.718691	0.523740	0.457361	-0.657411	0.726061	0.201610	-0.226481	-0.445570	0.866126
10898		5.339627	2.115153	10.708213	0.038317	-0.028797	-0.043513	1.000000	0.000479	-0.000360	-0.000544	0.719239	0.522668	0.457726	-0.656845	0.726225	0.202861	-0.226383	-0.446560	0.865641
10899		5.553560	2.294571	10.615486	0.026520	-0.044909	-0.031098	1.000000	0.000332	-0.000561	-0.000389	0.719493	0.521654	0.458484	-0.656433	0.726365	0.203688	-0.226772	-0.447516	0.865045
10900		5.590903	2.086134	10.719232	0.035503	-0.070325	-0.033469	0.999999	0.000444	-0.000879	-0.000418	0.719636	0.520313	0.459780	-0.656032	0.726435	0.204731	-0.227476	-0.448962	0.864111
10901		5.218069	2.356843	10.788010	0.046353	-0.106647	-0.037123	0.999999	0.000579	-0.001333	-0.000464	0.719622	0.518507	0.461838	-0.655633	0.726429	0.206024	-0.228668	-0.451056	0.862705
10902		5.681192	1.921257	10.366654	0.010016	-0.089359	-0.050930	0.999999	0.000125	-0.001117	-0.000637	0.719944	0.516646	0.463420	-0.654768	0.727019	0.206691	-0.230129	-0.452239	0.861696
10903		5.458892	2.703192	10.400683	-0.032621	-0.066306	-0.062978	0.999999	-0.000408	-0.000829	-0.000787	0.720570	0.514837	0.464458	-0.653451	0.728246	0.206542	-0.231904	-0.452328	0.861173
10904		5.436190	1.877123	10.400280	-0.107926	-0.063174	-0.153251	0.999997	-0.001349	-0.000790	-0.001916	0.722690	0.511399	0.464963	-0.650056	0.731471	0.205856	-0.234833	-0.451022	0.861065
10905		5.857036	1.789241	10.192541	-0.027261	-0.006139	-0.093163	0.999999	-0.000341	-0.000077	-0.001165	0.724153	0.509713	0.464538	-0.648214	0.733011	0.206186	-0.235416	-0.450430	0.861216
10906		5.400097	2.595884	10.446572	-0.054689	0.040857	0.011547	1.000000	-0.000684	0.000511	0.000144	0.724162	0.510486	0.463674	-0.648122	0.733522	0.204654	-0.235642	-0.448720	0.862046
10907		5.382485	2.388534	10.314294	-0.110396	0.082032	0.062840	0.999998	-0.001380	0.001025	0.000785	0.723592	0.512641	0.462183	-0.648626	0.733986	0.201367	-0.236007	-0.445492	0.863619
10908		5.383971	1.607681	10.566809	-0.083632	0.088884	0.046521	0.999999	-0.001045	0.001111	0.000582	0.723345	0.514570	0.460424	-0.648978	0.734361	0.198849	-0.235796	-0.442641	0.865141
10909		5.624947	1.544155	10.560245	0.004187	0.059961	-0.044870	1.000000	0.000052	0.000750	-0.000561	0.724384	0.514513	0.458851	-0.648205	0.734944	0.199218	-0.234730	-0.441740	0.865891
10910		5.573856	2.228591	10.523836	0.037635	0.041264	-0.076328	0.999999	0.000470	0.000516	-0.000954	0.725804	0.513685	0.457532	-0.647071	0.735553	0.200651	-0.233467	-0.441689	0.866258
10911		5.523924	2.604168	10.403019	0.019215	0.050906	-0.051040	1.000000	0.000240	0.000636	-0.000638	0.726857	0.513423	0.456153	-0.646290	0.736040	0.201381	-0.232353	-0.441182	0.866816
10912		5.434411	2.539069	10.580386	0.007792	0.052365	-0.023783	1.000000	0.000097	0.000655	-0.000297	0.727499	0.513670	0.454850	-0.645925	0.736302	0.201591	-0.231356	-0.440456	0.867452
10913		5.398527	2.043479	10.619585	-0.006982	0.038336	0.000567	1.000000	-0.000087	0.000479	0.000007	0.727672	0.514196	0.453977	-0.645914	0.736411	0.201231	-0.230841	-0.439660	0.867993
10914		5.469695	2.141422	10.609750	0.014317	0.025189	-0.022824	1.000000	0.000179	0.000315	-0.000285	0.728145	0.514155	0.453266	-0.645603	0.736587	0.201587	-0.230223	-0.439415	0.868281
10915		5.419127	2.206893	10.639199	0.048593	-0.003849	-0.037506	1.000000	0.000607	-0.000048	-0.000469	0.728686	0.513520	0.453115	-0.645225	0.736564	0.202875	-0.229568	-0.440194	0.868060
10916		5.515804	2.325141	10.462684	0.044195	-0.002885	-0.033159	1.000000	0.000552	-0.000036	-0.000414	0.729171	0.512983	0.452943	-0.644895	0.736537	0.204018	-0.228952	-0.440865	0.867882
10917		5.532150	2.374779	10.526105	0.027189	0.017716	-0.015079	1.000000	0.000340	0.000221	-0.000188	0.729473	0.512989	0.452451	-0.644794	0.736473	0.204569	-0.228276	-0.440965	0.868009
10918		5.520394	2.213369	10.579762	0.005244	0.023398	-0.004464	1.000000	0.000066	0.000292	-0.000056	0.729600	0.513245	0.451954	-0.644759	0.736544	0.204421	-0.227966	-0.440548	0.868303
10919		5.446912	2.260367	10.577430	-0.012421	0.018530	0.006203	1.000000	-0.000155	0.000232	0.000078	0.729568	0.513672	0.451522	-0.644819	0.736652	0.203847	-0.227904	-0.439870	0.868662
10920		5.446178	2.101096	10.550902	0.001897	0.012104	-0.000717	1.000000	0.000024	0.000151	-0.000009	0.729609	0.513893	0.451204	-0.644833	0.736687	0.203672	-0.227731	-0.439552	0.868869
10921		5.414480	2.308035	10.606397	0.019947	0.003813	-0.013985	1.000000	0.000249	0.000048	-0.000175	0.729793	0.513761	0.451057	-0.644726	0.736673	0.204060	-0.227444	-0.439730	0.868854
10922		5.453782	2.389032	10.471993	-0.002970	-0.000856	0.012330	1.000000	-0.000037	-0.000011	0.000154	0.729528	0.514066	0.451138	-0.644952	0.736606	0.203589	-0.227653	-0.439486	0.868922
10923		5.449206	2.170122	10.497940	-0.020991	0.016934	0.031599	1.000000	-0.000262	0.000212	0.000395	0.729067	0.514928	0.450900	-0.645432	0.736468	0.202562	-0.227769	-0.438707	0.869286
10924		5.496513	2.095794	10.610142	-0.005125	0.007478	0.007179	1.000000	-0.000064	0.000093	0.000090	0.728921	0.515210	0.450814	-0.645587	0.736423	0.202234	-0.227797	-0.438452	0.869407
10925		5.488493	2.239278	10.504927	-0.002553	0.008240	0.005803	1.000000	-0.000032	0.000103	0.000073	0.728833	0.515500	0.450624	-0.645712	0.736389	0.201958	-0.227725	-0.438167	0.869569
10926		5.455859	2.221763	10.552220	-0.012730	0.009138	0.009761	1.000000	-0.000159	0.000114	0.000122	0.728627	0.515850	0.450557	-0.645860	0.736438	0.201306	-0.227963	-0.437674	0.869756
10927		5.501061	2.194883	10.593674	-0.012201	-0.002873	0.008910	1.000000	-0.000153	-0.000036	0.000111	0.728420	0.516079	0.450629	-0.645987	0.736474	0.200766	-0.228265	-0.437343	0.869843
10928		5.453986	2.268586	10.465908	-0.021397	-0.001071	0.014329	1.000000	-0.000267	-0.000013	0.000179	0.728075	0.516376	0.450847	-0.646179	0.736533	0.199930	-0.228824	-0.436892	0.869922
10929		5.448821	2.189316	10.545953	-0.014415	0.011512	0.012906	1.000000	-0.000180	0.000144	0.000161	0.727852	0.516780	0.450743	-0.646363	0.736549	0.199277	-0.229012	-0.436388	0.870126
10930		5.515622	2.219580	10.541384	-0.002766	0.002277	0.006232	1.000000	-0.000035	0.000028	0.000078	0.727690	0.516982	0.450773	-0.646484	0.736543	0.198905	-0.229183	-0.436159	0.870196
10931		5.525849	2.225516	10.501649	-0.007040	0.003397	0.009165	1.000000	-0.000088	0.000042	0.000115	0.727459	0.517257	0.450830	-0.646666	0.736513	0.198426	-0.229405	-0.435883	0.870275
10932		5.491241	2.157097	10.532589	-0.009187	0.007483	0.002593	1.000000	-0.000115	0.000094	0.000032	0.727398	0.517475	0.450680	-0.646708	0.736580	0.198037	-0.229482	-0.435510	0.870442
10933		5.482300	2.369143	10.435662	-0.017124	0.011521	0.009847	1.000000	-0.000214	0.000144	0.000123	0.727208	0.517784	0.450631	-0.646865	0.736575	0.197541	-0.229640	-0.435151	0.870580
10934		5.463231	2.243894	10.473084	-0.045290	0.041188	0.034889	1.000000	-0.000566	0.000515	0.000436	0.726772	0.518862	0.450095	-0.647285	0.736612	0.196024	-0.229836	-0.433804	0.871200
10935		5.449518	2.193320	10.537634	-0.045622	0.050212	0.030930	1.000000	-0.000570	0.000628	0.000387	0.726511	0.520076	0.449113	-0.647583	0.736792	0.194358	-0.229822	-0.432041	0.872079
10936		5.488186	2.162779	10.591449	-0.039749	0.040508	0.031311	1.000000	-0.000497	0.000506	0.000391	0.726203	0.521208	0.448298	-0.647954	0.736832	0.192959	-0.229749	-0.430605	0.872809
10937		5.504708	2.228921	10.532278	-0.040775	0.032528	0.036932	1.000000	-0.000510	0.000407	0.000462	0.725742	0.522335	0.447733	-0.648415	0.736823	0.191441	-0.229903	-0.429253	0.873433
10938		5.477767	1.993173	10.522710	-0.050596	0.048660	0.043585	0.999999	-0.000632	0.000608	0.000545	0.725255	0.523737	0.446882	-0.648958	0.736796	0.189697	-0.229910	-0.427586	0.874249
10939		5.447556	2.030118	10.642176	-0.020858	0.038966	0.006909	1.000000	-0.000261	0.000487	0.000086	0.725312	0.524379	0.446037	-0.649029	0.736891	0.189085	-0.229529	-0.426637	0.874813
10940		5.458891	2.170621	10.543846	-0.016426	0.023909	0.006301	1.000000	-0.000205	0.000299	0.000079	0.725257	0.524777	0.445658	-0.649147	0.736884	0.188706	-0.229370	-0.426158	0.875088
10941		5.473245	2.234867	10.518830	-0.031107	0.041334	0.020827	1.000000	-0.000389	0.000517	0.000260	0.725044	0.525542	0.445102	-0.649315	0.737062	0.187429	-0.229566	-0.424906	0.875645
10942		5.469876	2.085673	10.596453	-0.035994	0.045455	0.025412	1.000000	-0.000450	0.000568	0.000318	0.724764	0.526467	0.444465	-0.649612	0.737118	0.186173	-0.229610	-0.423662	0.876236
10943		5.420341	2.069485	10.579691	-0.037706	0.051151	0.026868	1.000000	-0.000471	0.000639	0.000336	0.724521	0.527445	0.443702	-0.649906	0.737174	0.184924	-0.229548	-0.422346	0.876888
10944		5.455720	2.044480	10.650333	-0.028971	0.046250	0.013925	1.000000	-0.000362	0.000578	0.000174	0.724509	0.528302	0.442701	-0.650099	0.737184	0.184203	-0.229037	-0.421256	0.877545
10945		5.438159	2.118079	10.594969	-0.024358	0.038518	0.013865	1.000000	-0.000304	0.000481	0.000173	0.724440	0.528986	0.441996	-0.650169	0.737393	0.183118	-0.229058	-0.420030	0.878127
10946		5.454261	2.103602	10.570701	-0.034334	0.046471	0.020610	1.000000	-0.000429	0.000581	0.000258	0.724293	0.529872	0.441174	-0.650396	0.737455	0.182061	-0.228877	-0.418803	0.878760
10947		5.416588	2.093890	10.594343	-0.035260	0.056079	0.019429	1.000000	-0.000441	0.000701	0.000243	0.724209	0.530871	0.440110	-0.650639	0.737485	0.181067	-0.228452	-0.417483	0.879499
10948		5.435353	1.985237	10.652129	-0.024273	0.047202	0.011647	1.000000	-0.000303	0.000590	0.000146	0.724155	0.531569	0.439357	-0.650795	0.737528	0.180330	-0.228180	-0.416518	0.880027
10949		5.419620	2.071194	10.618635	-0.016884	0.041337	0.002990	1.000000	-0.000211	0.000517	0.000037	0.724272	0.531962	0.438687	-0.650684	0.737802	0.179603	-0.228122	-0.415528	0.880509
10950		5.375428	2.125077	10.597861	-0.022118	0.041224	0.006667	1.000000	-0.000276	0.000515	0.000083	0.724188	0.532173	0.438570	-0.650664	0.737987	0.178915	-0.228445	-0.414930	0.880708
10951		5.375355	2.056152	10.670119	-0.024996	0.039647	0.009230	1.000000	-0.000312	0.000496	0.000115	0.724052	0.532625	0.438245	-0.650860	0.737917	0.178492	-0.228319	-0.414474	0.880955
10952		5.403048	2.082207	10.618258	-0.023946	0.035007	0.012093	1.000000	-0.000299	0.000438	0.000151	0.723937	0.532881	0.438123	-0.650800	0.738214	0.177479	-0.228854	-0.413615	0.881220
10953		5.398187	1.969108	10.666049	-0.017372	0.034641	0.008396	1.000000	-0.000217	0.000433	0.000105	0.723798	0.533357	0.437774	-0.651003	0.738143	0.177033	-0.228718	-0.413128	0.881484
10954		5.398781	2.048854	10.672417	-0.007141	0.024624	-0.000052	1.000000	-0.000089	0.000308	-0.000001	0.723838	0.533608	0.437402	-0.651055	0.738120	0.176936	-0.228441	-0.412846	0.881688
10955		5.405161	2.066278	10.618044	-0.013814	0.027253	0.003981	1.000000	-0.000173	0.000341	0.000050	0.723836	0.533776	0.437202	-0.651017	0.738259	0.176495	-0.228559	-0.412379	0.881875
10956		5.384100	2.013294	10.628078	-0.019685	0.037594	0.005279	1.000000	-0.000246	0.000470	0.000066	0.723818	0.533965	0.436999	-0.650970	0.738432	0.175944	-0.228746	-0.411825	0.882086
10957		5.359214	2.034883	10.680183	-0.015797	0.030655	0.001884	1.000000	-0.000197	0.000383	0.000024	0.723822	0.533948	0.437014	-0.650816	0.738699	0.175392	-0.229172	-0.411368	0.882189
10958		5.366653	2.019128	10.653204	-0.016051	0.025625	0.005407	1.000000	-0.000201	0.000320	0.000068	0.723915	0.533858	0.436970	-0.650472	0.739213	0.174502	-0.229855	-0.410561	0.882387
10959		5.340090	2.022701	10.660121	-0.011362	0.023082	0.000970	1.000000	-0.000142	0.000289	0.000012	0.723838	0.534111	0.436788	-0.650553	0.739224	0.174151	-0.229868	-0.410212	0.882546
10960		5.374440	2.034105	10.670711	-0.007904	0.015581	0.001744	1.000000	-0.000099	0.000195	0.000022	0.723731	0.534326	0.436704	-0.650709	0.739107	0.174064	-0.229764	-0.410142	0.882605
10961		5.372059	2.042530	10.655038	-0.012048	0.017012	0.007077	1.000000	-0.000151	0.000213	0.000088	0.723546	0.534638	0.436628	-0.650933	0.738964	0.173834	-0.229714	-0.409992	0.882688
10962		5.359054	2.011668	10.666025	-0.012188	0.016348	0.006882	1.000000	-0.000152	0.000204	0.000086	0.723398	0.534446	0.437107	-0.650822	0.739190	0.173288	-0.230492	-0.409835	0.882558
10963		5.364858	2.020617	10.661749	-0.010677	0.008040	0.007864	1.000000	-0.000133	0.000101	0.000098	0.723202	0.534543	0.437314	-0.650975	0.739094	0.173122	-0.230675	-0.409883	0.882488
10964		5.366386	2.024371	10.668616	-0.009288	0.010447	0.008354	1.000000	-0.000116	0.000131	0.000104	0.722883	0.534809	0.437515	-0.651358	0.738742	0.173183	-0.230591	-0.410170	0.882377
10965		5.359493	2.015357	10.681780	-0.009106	0.005957	0.007688	1.000000	-0.000114	0.000074	0.000096	0.722636	0.534837	0.437889	-0.651494	0.738685	0.172912	-0.230982	-0.410235	0.882244
10966		5.386878	2.032572	10.632071	-0.011848	0.008827	0.010328	1.000000	-0.000148	0.000110	0.000129	0.722312	0.534919	0.438323	-0.651740	0.738508	0.172745	-0.231301	-0.410449	0.882061
10967		5.373435	1.962173	10.663731	-0.011801	0.011744	0.010863	1.000000	-0.000148	0.000147	0.000136	0.722322	0.534695	0.438580	-0.651367	0.739073	0.171731	-0.232319	-0.409722	0.882131
10968		5.383481	1.993497	10.662575	-0.002687	0.009581	0.003079	1.000000	-0.000034	0.000120	0.000038	0.722224	0.534827	0.438580	-0.651501	0.738956	0.171728	-0.232247	-0.409761	0.882132
10969		5.352985	2.027899	10.668533	-0.004315	0.009238	0.004316	1.000000	-0.000054	0.000115	0.000054	0.722034	0.534895	0.438810	-0.651670	0.738815	0.171691	-0.232364	-0.409926	0.882025
10970		5.355953	2.017576	10.659915	-0.005862	0.007134	0.006810	1.000000	-0.000073	0.000089	0.000085	0.721717	0.534899	0.439328	-0.651894	0.738641	0.171591	-0.232721	-0.410235	0.881787
10971		5.388646	2.025108	10.640284	-0.010600	0.006292	0.009126	1.000000	-0.000133	0.000079	0.000114	0.721391	0.535001	0.439738	-0.652182	0.738398	0.171545	-0.232925	-0.410540	0.881591
10972		5.380146	1.933696	10.663116	-0.008955	0.009949	0.006206	1.000000	-0.000112	0.000124	0.000078	0.721300	0.534790	0.440143	-0.652032	0.738643	0.171061	-0.233627	-0.410373	0.881483
10973		5.363258	1.999653	10.649832	-0.003494	0.012684	0.000112	1.000000	-0.000044	0.000159	0.000001	0.721357	0.534509	0.440391	-0.651792	0.738915	0.170797	-0.234120	-0.410249	0.881410
10974		5.399537	2.012435	10.659368	-0.004258	0.011675	0.003265	1.000000	-0.000053	0.000146	0.000041	0.721317	0.534453	0.440523	-0.651716	0.739054	0.170489	-0.234452	-0.410073	0.881404
10975		5.394645	2.014579	10.637880	-0.007459	0.013424	0.004680	1.000000	-0.000093	0.000168	0.000059	0.721201	0.534680	0.440438	-0.651851	0.738983	0.170277	-0.234432	-0.409904	0.881487
10976		5.392116	1.980318	10.666937	-0.007908	0.016101	0.003364	1.000000	-0.000099	0.000201	0.000042	0.721172	0.534540	0.440656	-0.651717	0.739183	0.169922	-0.234895	-0.409726	0.881447
10977		5.354796	2.008634	10.685415	-0.004568	0.015023	0.002151	1.000000	-0.000057	0.000188	0.000027	0.721074	0.534690	0.440635	-0.651879	0.739024	0.169992	-0.234747	-0.409817	0.881444
10978		5.378730	1.987116	10.697754	-0.003929	0.007369	0.001201	1.000000	-0.000049	0.000092	0.000015	0.721111	0.534370	0.440962	-0.651649	0.739276	0.169775	-0.235270	-0.409779	0.881322
10979		5.381669	2.007397	10.645807	-0.002918	0.011170	0.003228	1.000000	-0.000036	0.000140	0.000040	0.720982	0.534574	0.440926	-0.651827	0.739132	0.169722	-0.235174	-0.409773	0.881351
10980		5.384434	1.966193	10.664409	-0.005204	0.014117	0.000099	1.000000	-0.000065	0.000176	0.000001	0.721079	0.534449	0.440919	-0.651631	0.739360	0.169480	-0.235420	-0.409525	0.881401
10981		5.380199	2.008478	10.678255	-0.000493	0.012127	0.001065	1.000000	-0.000006	0.000152	0.000013	0.720818	0.534737	0.440996	-0.652061	0.738897	0.169847	-0.235027	-0.409985	0.881291
10982		5.368322	2.010877	10.644646	-0.002354	0.013366	0.002438	1.000000	-0.000029	0.000167	0.000030	0.720642	0.535036	0.440921	-0.652364	0.738601	0.169970	-0.234725	-0.410129	0.881305
10983		5.398230	1.964304	10.672079	0.002012	0.011318	0.000158	1.000000	0.000025	0.000141	0.000002	0.720522	0.535042	0.441110	-0.652571	0.738323	0.170383	-0.234520	-0.410620	0.881131
10984		5.393516	1.996690	10.647101	0.001677	0.015064	-0.003177	1.000000	0.000021	0.000188	-0.000040	0.720350	0.535362	0.441002	-0.653037	0.737745	0.171098	-0.233748	-0.411241	0.881046
10985		5.367229	1.993733	10.670149	0.002840	0.014767	-0.004044	1.000000	0.000036	0.000185	-0.000051	0.720287	0.535273	0.441214	-0.653152	0.737551	0.171494	-0.233621	-0.411705	0.880863
10986		5.378005	2.040257	10.650776	-0.001168	0.012104	-0.001614	1.000000	-0.000015	0.000151	-0.000020	0.720200	0.535348	0.441264	-0.653322	0.737340	0.171753	-0.233414	-0.411984	0.880788
10987		5.382165	1.997602	10.652673	-0.005030	0.013912	0.000928	1.000000	-0.000063	0.000174	0.000012	0.720248	0.535249	0.441307	-0.653192	0.737499	0.171569	-0.233631	-0.411830	0.880802
10988		5.391930	1.985254	10.680177	-0.001892	0.014015	0.002077	1.000000	-0.000024	0.000175	0.000026	0.720150	0.535439	0.441236	-0.653360	0.737343	0.171598	-0.233462	-0.411862	0.880832
10989		5.378601	2.003729	10.661693	0.001135	0.012479	-0.000160	1.000000	0.000014	0.000156	-0.000002	0.720160	0.535454	0.441200	-0.653348	0.737363	0.171558	-0.233463	-0.411806	0.880858
10990		5.379446	2.024852	10.666797	-0.001242	0.010157	0.001035	1.000000	-0.000016	0.000127	0.000013	0.720160	0.535295	0.441395	-0.653249	0.737476	0.171450	-0.233742	-0.411812	0.880781
10991		5.378357	1.995238	10.654399	0.000560	0.006482	0.000717	1.000000	0.000007	0.000081	0.000009	0.720093	0.535208	0.441608	-0.653288	0.737418	0.171546	-0.233837	-0.412027	0.880656
10992		5.386924	2.019408	10.630901	-0.003382	0.010058	0.002004	1.000000	-0.000042	0.000126	0.000025	0.719882	0.535612	0.441464	-0.653661	0.737063	0.171654	-0.233447	-0.412138	0.880707
10993		5.390297	1.991757	10.647761	-0.006282	0.012182	0.000629	1.000000	-0.000079	0.000152	0.000008	0.719840	0.535557	0.441599	-0.653649	0.737091	0.171578	-0.233609	-0.412159	0.880654
10994		5.390527	2.010928	10.653556	-0.008223	0.015190	0.000747	1.000000	-0.000103	0.000190	0.000009	0.720005	0.534944	0.442073	-0.653183	0.737562	0.171330	-0.234404	-0.412113	0.880464
10995		5.382422	2.001139	10.651114	-0.007902	0.019453	0.001693	1.000000	-0.000099	0.000243	0.000021	0.720280	0.534588	0.442055	-0.652623	0.738220	0.170630	-0.235117	-0.411397	0.880609
10996		5.387520	2.007778	10.671295	-0.007773	0.020043	-0.001916	1.000000	-0.000097	0.000251	-0.000024	0.720146	0.534684	0.442157	-0.652885	0.737888	0.171061	-0.234799	-0.411866	0.880475
10997		5.378454	1.984832	10.670656	-0.006723	0.018677	-0.000762	1.000000	-0.000084	0.000233	-0.000010	0.720237	0.534412	0.442338	-0.652689	0.738066	0.171044	-0.235067	-0.411902	0.880387
10998		5.387582	2.001970	10.655515	-0.005679	0.017227	-0.003422	1.000000	-0.000071	0.000215	-0.000043	0.720165	0.534390	0.442482	-0.652780	0.737947	0.171210	-0.235035	-0.412143	0.880282
10999		5.382367	2.000788	10.658372	-0.006647	0.020638	-0.003402	1.000000	-0.000083	0.000258	-0.000043	0.720173	0.534714	0.442077	-0.652910	0.737839	0.171181	-0.234649	-0.411916	0.880491
11000		5.354741	1.997804	10.642229	-0.005460	0.019942	-0.002046	1.000000	-0.000068	0.000249	-0.000026	0.720343	0.534488	0.442072	-0.652601	0.738177	0.170899	-0.234984	-0.411603	0.880548
11001		5.378547	1.986605	10.677432	-0.000953	0.014754	-0.004034	1.000000	-0.000012	0.000184	-0.000050	0.720263	0.534540	0.442141	-0.652762	0.737970	0.171178	-0.234785	-0.411906	0.880460
11002		5.387232	2.009266	10.638083	-0.003838	0.012672	-0.003111	1.000000	-0.000048	0.000158	-0.000039	0.720180	0.534701	0.442081	-0.652944	0.737769	0.171351	-0.234532	-0.412058	0.880456
11003		5.376855	2.018270	10.666812	-0.006054	0.014424	0.000416	1.000000	-0.000076	0.000180	0.000005	0.720275	0.534248	0.442474	-0.652579	0.738169	0.171018	-0.235254	-0.411929	0.880324
11004		5.375632	1.983112	10.678955	-0.005568	0.014585	-0.001539	1.000000	-0.000070	0.000182	-0.000019	0.720180	0.534375	0.442475	-0.652707	0.738058	0.171008	-0.235190	-0.411963	0.880325
11005		5.352406	2.032743	10.639108	-0.006931	0.015585	0.000094	1.000000	-0.000087	0.000195	0.000001	0.720207	0.534401	0.442400	-0.652648	0.738154	0.170821	-0.235273	-0.411758	0.880399
11006		5.397432	2.012786	10.671353	-0.004657	0.012547	-0.000587	1.000000	-0.000058	0.000157	-0.000007	0.720278	0.534225	0.442498	-0.652484	0.738324	0.170711	-0.235509	-0.411682	0.880371
11007		5.386219	1.982865	10.664691	-0.005801	0.016175	-0.001393	1.000000	-0.000073	0.000202	-0.000017	0.720236	0.534217	0.442574	-0.652514	0.738297	0.170713	-0.235553	-0.411740	0.880332
11008		5.373710	1.996149	10.670234	-0.004771	0.015208	-0.002459	1.000000	-0.000060	0.000190	-0.000031	0.720462	0.533572	0.442984	-0.652031	0.738740	0.170644	-0.236200	-0.411782	0.880139
11009		5.373685	2.018749	10.635962	-0.004597	0.014995	-0.001630	1.000000	-0.000057	0.000187	-0.000020	0.720492	0.533531	0.442985	-0.651997	0.738763	0.170672	-0.236202	-0.411793	0.880133
11010		5.363686	1.984585	10.652877	-0.005940	0.015511	-0.001592	1.000000	-0.000074	0.000194	-0.000020	0.720565	0.533403	0.443021	-0.651850	0.738921	0.170551	-0.236385	-0.411676	0.880139
11011		5.375295	2.011747	10.659319	-0.001812	0.015527	-0.002122	1.000000	-0.000023	0.000194	-0.000027	0.720551	0.533512	0.442912	-0.651934	0.738826	0.170641	-0.236195	-0.411705	0.880177
11012		5.362739	1.998216	10.667572	-0.004134	0.011830	-0.001913	1.000000	-0.000052	0.000148	-0.000024	0.720535	0.533319	0.443171	-0.651874	0.738867	0.170693	-0.236411	-0.411882	0.880036
11013		5.361097	1.995263	10.652782	-0.004214	0.013683	0.000653	1.000000	-0.000053	0.000171	0.000008	0.720379	0.533651	0.443025	-0.652144	0.738628	0.170693	-0.236140	-0.411880	0.880110
11014		5.376260	1.988635	10.668676	-0.002617	0.011102	-0.001120	1.000000	-0.000033	0.000139	-0.000014	0.720371	0.533697	0.442983	-0.652186	0.738579	0.170748	-0.236050	-0.411909	0.880120
11015		5.368332	1.998850	10.640146	-0.001544	0.013061	-0.001636	1.000000	-0.000019	0.000163	-0.000020	0.720442	0.533525	0.443074	-0.652045	0.738710	0.170719	-0.236221	-0.411897	0.880080
11016		5.358007	2.008916	10.668553	-0.001016	0.012336	-0.002966	1.000000	-0.000013	0.000154	-0.000037	0.720278	0.533976	0.442797	-0.652431	0.738321	0.170927	-0.235656	-0.412009	0.880179
11017		5.373527	2.005322	10.644174	-0.002988	0.012020	-0.001178	1.000000	-0.000037	0.000150	-0.000015	0.720190	0.534005	0.442907	-0.652556	0.738173	0.171088	-0.235580	-0.412237	0.880092
11018		5.379971	2.012970	10.663510	-0.005635	0.015979	-0.000555	1.000000	-0.000070	0.000200	-0.000007	0.720360	0.533750	0.442937	-0.652238	0.738516	0.170821	-0.235940	-0.411953	0.880129
11019		5.383853	1.983834	10.664145	-0.002753	0.014253	-0.001392	1.000000	-0.000034	0.000178	-0.000017	0.720450	0.533448	0.443154	-0.652015	0.738727	0.170757	-0.236280	-0.411966	0.880032
11020		5.357399	2.024738	10.658761	-0.002151	0.011753	-0.001475	1.000000	-0.000027	0.000147	-0.000018	0.720444	0.533418	0.443200	-0.651991	0.738763	0.170698	-0.236366	-0.411940	0.880021
11021		5.365267	2.003227	10.664351	-0.005577	0.014614	-0.001524	1.000000	-0.000070	0.000183	-0.000019	0.720565	0.533186	0.443281	-0.651789	0.738942	0.170689	-0.236550	-0.411919	0.879981
11022		5.356127	1.982927	10.679319	-0.002644	0.011594	0.000481	1.000000	-0.000033	0.000145	0.000006	0.720653	0.533056	0.443295	-0.651606	0.739153	0.170477	-0.236789	-0.411708	0.880015
11023		5.379320	2.007944	10.663749	-0.000611	0.010543	-0.002274	1.000000	-0.000008	0.000132	-0.000028	0.720672	0.533055	0.443265	-0.651618	0.739120	0.170578	-0.236698	-0.411770	0.880011
11024		5.378108	2.005937	10.648607	-0.001338	0.011969	-0.000176	1.000000	-0.000017	0.000150	-0.000002	0.720597	0.533152	0.443270	-0.651736	0.739001	0.170640	-0.236600	-0.411857	0.879996
11025		5.365702	1.992533	10.656703	-0.002114	0.014689	-0.000918	1.000000	-0.000026	0.000184	-0.000011	0.720680	0.532898	0.443440	-0.651543	0.739183	0.170586	-0.236879	-0.411858	0.879921
11026		5.365595	2.013253	10.662450	-0.003063	0.013808	-0.002417	1.000000	-0.000038	0.000173	-0.000030	0.720598	0.533130	0.443295	-0.651720	0.739019	0.170621	-0.236640	-0.411854	0.879987
11027		5.378617	1.997470	10.656664	-0.003730	0.013864	-0.001291	1.000000	-0.000047	0.000173	-0.000016	0.720574	0.533322	0.443104	-0.651825	0.738927	0.170619	-0.236426	-0.411770	0.880084
11028		5.373630	2.025804	10.672349	-0.004225	0.013704	0.000664	1.000000	-0.000053	0.000171	0.000008	0.720633	0.533074	0.443307	-0.651636	0.739121	0.170501	-0.236768	-0.411743	0.880005
11029		5.373361	2.004716	10.682471	-0.004065	0.010075	-0.000657	1.000000	-0.000051	0.000126	-0.000008	0.720468	0.533408	0.443172	-0.651969	0.738780	0.170704	-0.236352	-0.411921	0.880033
11030		5.365332	2.000699	10.655538	-0.003731	0.013869	-0.001287	1.000000	-0.000047	0.000173	-0.000016	0.720552	0.533353	0.443101	-0.651850	0.738910	0.170597	-0.236423	-0.411760	0.880090
11031		5.359510	2.001766	10.674374	-0.004273	0.015003	-0.002173	1.000000	-0.000053	0.000188	-0.000027	0.720483	0.533617	0.442897	-0.652049	0.738712	0.170696	-0.236087	-0.411773	0.880174
11032		5.357901	2.026217	10.656872	-0.005274	0.015087	-0.000484	1.000000	-0.000066	0.000189	-0.000006	0.720335	0.533929	0.442761	-0.652320	0.738459	0.170755	-0.235790	-0.411823	0.880230
11033		5.363442	2.006140	10.679484	-0.004770	0.014845	-0.000218	1.000000	-0.000060	0.000186	-0.000003	0.720351	0.534030	0.442613	-0.652312	0.738500	0.170606	-0.235761	-0.411618	0.880334
11034		5.355054	2.001867	10.652791	-0.004978	0.012131	-0.001601	1.000000	-0.000062	0.000152	-0.000020	0.720256	0.534128	0.442649	-0.652453	0.738356	0.170692	-0.235661	-0.411750	0.880299
11035		5.373290	2.002899	10.674176	-0.002091	0.014223	-0.002499	1.000000	-0.000026	0.000178	-0.000031	0.720197	0.534344	0.442485	-0.652633	0.738163	0.170835	-0.235341	-0.411815	0.880354
11036		5.375071	2.008137	10.664616	-0.001849	0.012229	-0.000427	1.000000	-0.000023	0.000153	-0.000005	0.720273	0.534134	0.442616	-0.652464	0.738327	0.170772	-0.235580	-0.411793	0.880300
11037		5.364805	2.006479	10.654479	-0.002931	0.014498	-0.002200	1.000000	-0.000037	0.000181	-0.000027	0.720342	0.533998	0.442666	-0.652358	0.738413	0.170808	-0.235659	-0.411817	0.880268
11038		5.374298	2.008130	10.680626	-0.004204	0.013236	-0.000923	1.000000	-0.000053	0.000165	-0.000012	0.720227	0.534112	0.442716	-0.652520	0.738252	0.170885	-0.235564	-0.411957	0.880228
11039		5.362710	2.010432	10.647124	-0.003906	0.014101	-0.002106	1.000000	-0.000049	0.000176	-0.000026	0.720261	0.534157	0.442607	-0.652483	0.738312	0.170769	-0.235564	-0.411791	0.880305
11040		5.373873	2.010183	10.656716	-0.003637	0.015447	-0.001693	1.000000	-0.000045	0.000193	-0.000021	0.720253	0.534173	0.442600	-0.652497	0.738299	0.170770	-0.235551	-0.411793	0.880308
11041		5.352848	2.010698	10.668107	-0.004206	0.013241	-0.000920	1.000000	-0.000053	0.000166	-0.000011	0.720158	0.534269	0.442638	-0.652634	0.738161	0.170845	-0.235461	-0.411916	0.880274
11042		5.359742	2.006882	10.648836	-0.005075	0.013996	0.000974	1.000000	-0.000063	0.000175	0.000012	0.720043	0.534401	0.442667	-0.652791	0.738015	0.170877	-0.235378	-0.412008	0.880254
11043		5.367897	2.012339	10.651678	-0.004137	0.015289	0.000263	1.000000	-0.000052	0.000191	0.000003	0.720121	0.534216	0.442763	-0.652613	0.738200	0.170752	-0.235629	-0.411915	0.880230
11044		5.353114	2.000279	10.676670	-0.002288	0.014529	0.000497	1.000000	-0.000029	0.000182	0.000006	0.720020	0.534293	0.442835	-0.652781	0.738005	0.170954	-0.235475	-0.412164	0.880155
11045		5.361636	2.006944	10.679101	0.000192	0.011188	-0.003169	1.000000	0.000002	0.000140	-0.000040	0.720154	0.533941	0.443041	-0.652549	0.738185	0.171064	-0.235708	-0.412298	0.880029
11046		5.379876	2.016088	10.636444	0.000526	0.011162	-0.003730	1.000000	0.000007	0.000140	-0.000047	0.720049	0.534168	0.442937	-0.652805	0.737895	0.171337	-0.235319	-0.412523	0.880028
11047		5.378930	2.007612	10.685021	-0.001354	0.012407	-0.002368	1.000000	-0.000017	0.000155	-0.000030	0.719994	0.534147	0.443052	-0.652899	0.737760	0.171560	-0.235228	-0.412791	0.879927
11048		5.350642	2.011629	10.660490	-0.004174	0.012360	-0.000295	1.000000	-0.000052	0.000154	-0.000004	0.720053	0.534047	0.443077	-0.652768	0.737910	0.171412	-0.235409	-0.412653	0.879943
11049		5.379190	1.996425	10.662109	-0.001725	0.013328	-0.002425	1.000000	-0.000022	0.000167	-0.000030	0.720251	0.533703	0.443170	-0.652420	0.738253	0.171262	-0.235769	-0.412484	0.879926
11050		5.361788	2.005123	10.678492	-0.001725	0.013329	-0.002424	1.000000	-0.000022	0.000167	-0.000030	0.720343	0.533585	0.443162	-0.652278	0.738393	0.171199	-0.235878	-0.412387	0.879942
11051		5.360025	2.003495	10.663646	0.000255	0.013651	-0.004197	1.000000	0.000003	0.000171	-0.000052	0.720402	0.533524	0.443141	-0.652229	0.738416	0.171288	-0.235836	-0.412425	0.879936
11052		5.351928	2.039805	10.672156	0.000861	0.011143	-0.004286	1.000000	0.000011	0.000139	-0.000054	0.720346	0.533646	0.443085	-0.652372	0.738250	0.171457	-0.235610	-0.412564	0.879931
11053		5.365854	2.024611	10.665964	-0.004076	0.010100	-0.000648	1.000000	-0.000051	0.000126	-0.000008	0.720304	0.533568	0.443247	-0.652380	0.738236	0.171490	-0.235720	-0.412690	0.879843
11054		5.361188	2.000486	10.647184	-0.004009	0.012148	0.000535	1.000000	-0.000050	0.000152	0.000007	0.720119	0.533761	0.443314	-0.652635	0.737987	0.171587	-0.235574	-0.412885	0.879790
11055		5.358885	1.995286	10.672542	-0.002399	0.013389	-0.001296	1.000000	-0.000030	0.000167	-0.000016	0.720181	0.533723	0.443259	-0.652564	0.738056	0.171562	-0.235583	-0.412811	0.879823
11056		5.365692	2.017581	10.690182	-0.000012	0.011901	-0.002390	1.000000	-0.000000	0.000149	-0.000030	0.719996	0.533886	0.443364	-0.652884	0.737683	0.171949	-0.235261	-0.413268	0.879694
11057		5.363621	2.033670	10.650188	-0.003003	0.012071	-0.001148	1.000000	-0.000038	0.000151	-0.000014	0.719913	0.534121	0.443216	-0.653035	0.737566	0.171878	-0.235097	-0.413173	0.879783
11058		5.366419	2.019982	10.665753	-0.005425	0.014044	0.001542	1.000000	-0.000068	0.000176	0.000019	0.720003	0.533864	0.443378	-0.652819	0.737784	0.171762	-0.235419	-0.413115	0.879724
11059		5.363878	2.000664	10.692643	-0.002969	0.011182	-0.000526	1.000000	-0.000037	0.000140	-0.000007	0.719735	0.534230	0.443374	-0.653242	0.737366	0.171949	-0.235068	-0.413388	0.879689
11060		5.362243	2.016632	10.652478	-0.000750	0.009912	-0.002446	1.000000	-0.000009	0.000124	-0.000031	0.719762	0.534130	0.443449	-0.653180	0.737418	0.171964	-0.235156	-0.413425	0.879648
11061		5.352773	2.028790	10.640566	-0.003578	0.013695	-0.000435	1.000000	-0.000045	0.000171	-0.000005	0.719840	0.533976	0.443509	-0.653033	0.737562	0.171900	-0.235325	-0.413366	0.879631
11062		5.371723	2.011543	10.687099	-0.002703	0.012533	-0.000109	1.000000	-0.000034	0.000157	-0.000001	0.719895	0.533766	0.443673	-0.652908	0.737664	0.171939	-0.235506	-0.413456	0.879541
11063		5.350468	2.030389	10.673040	-0.003306	0.011624	-0.002178	1.000000	-0.000041	0.000145	-0.000027	0.719907	0.533667	0.443772	-0.652865	0.737693	0.171977	-0.235589	-0.413531	0.879483
11064		5.352452	2.021685	10.664875	-0.002501	0.011834	-0.000876	1.000000	-0.000031	0.000148	-0.000011	0.719949	0.533502	0.443902	-0.652747	0.737807	0.171937	-0.235785	-0.413542	0.879425
11065		5.364047	2.008344	10.675564	-0.000013	0.011912	-0.002380	1.000000	-0.000000	0.000149	-0.000030	0.720046	0.533359	0.443916	-0.652594	0.737954	0.171886	-0.235913	-0.413463	0.879428
11066		5.378952	2.048426	10.663488	-0.000784	0.010811	-0.003061	1.000000	-0.000010	0.000135	-0.000038	0.720093	0.533277	0.443939	-0.652526	0.738011	0.171903	-0.235959	-0.413468	0.879413
11067		5.361353	2.029695	10.682556	-0.002033	0.012485	-0.001228	1.000000	-0.000025	0.000156	-0.000015	0.720089	0.533369	0.443834	-0.652557	0.737994	0.171856	-0.235884	-0.413379	0.879475
11068		5.371936	2.033810	10.668542	-0.004256	0.013758	0.000692	1.000000	-0.000053	0.000172	0.000009	0.720216	0.533026	0.444041	-0.652282	0.738257	0.171772	-0.236257	-0.413353	0.879387
11069		5.354865	2.016727	10.647871	-0.003917	0.014144	-0.002084	1.000000	-0.000049	0.000177	-0.000026	0.720251	0.533009	0.444004	-0.652230	0.738317	0.171709	-0.236293	-0.413267	0.879418
11070		5.364013	2.018720	10.674133	-0.001261	0.014004	-0.002757	1.000000	-0.000016	0.000175	-0.000034	0.720351	0.532854	0.444028	-0.652085	0.738442	0.171721	-0.236387	-0.413243	0.879404
11071		5.360570	2.032361	10.674534	-0.001564	0.013138	-0.001577	1.000000	-0.000020	0.000164	-0.000020	0.720495	0.532622	0.444072	-0.651847	0.738672	0.171638	-0.236605	-0.413132	0.879398
11072		5.371883	2.019011	10.685387	-0.001360	0.012439	-0.002345	1.000000	-0.000017	0.000155	-0.000029	0.720470	0.532552	0.444198	-0.651877	0.738609	0.171793	-0.236600	-0.413334	0.879304
11073		5.364532	2.029568	10.656755	-0.001964	0.011118	-0.002200	1.000000	-0.000025	0.000139	-0.000028	0.720344	0.532741	0.444175	-0.652071	0.738428	0.171835	-0.236447	-0.413414	0.879307
11074		5.357408	2.008022	10.654724	-0.003078	0.013880	-0.002374	1.000000	-0.000038	0.000173	-0.000030	0.720261	0.532896	0.444124	-0.652231	0.738264	0.171932	-0.236259	-0.413507	0.879314
11075		5.343305	2.037769	10.674989	-0.001130	0.014686	-0.002544	1.000000	-0.000014	0.000184	-0.000032	0.720120	0.533146	0.444051	-0.652509	0.737970	0.172140	-0.235921	-0.413709	0.879310
11076		5.358833	2.047946	10.649885	-0.003655	0.015504	-0.001661	1.000000	-0.000046	0.000194	-0.000021	0.720092	0.533232	0.443995	-0.652568	0.737919	0.172133	-0.235845	-0.413688	0.879340
11077		5.364062	2.027768	10.672621	-0.006955	0.014806	0.000751	1.000000	-0.000087	0.000185	0.000009	0.719841	0.533742	0.443789	-0.652995	0.737538	0.172148	-0.235429	-0.413711	0.879441
11078		5.367903	2.016463	10.648118	-0.002846	0.011878	-0.000306	1.000000	-0.000036	0.000148	-0.000004	0.719844	0.533817	0.443693	-0.653003	0.737551	0.172063	-0.235395	-0.413592	0.879506
11079		5.371462	2.030415	10.660575	-0.004828	0.011969	-0.000754	1.000000	-0.000060	0.000150	-0.000009	0.719695	0.534012	0.443701	-0.653232	0.737325	0.172161	-0.235216	-0.413743	0.879483
11080		5.353822	2.024198	10.678439	-0.005572	0.013812	-0.000869	1.000000	-0.000070	0.000173	-0.000011	0.719812	0.533796	0.443770	-0.653034	0.737510	0.172119	-0.235408	-0.413691	0.879456
11081		5.358477	2.008776	10.677431	-0.003550	0.013243	-0.002015	1.000000	-0.000044	0.000166	-0.000025	0.719834	0.533809	0.443720	-0.653022	0.737523	0.172114	-0.235377	-0.413652	0.879483
11082		5.351043	2.032551	10.647648	-0.003418	0.013919	-0.001805	1.000000	-0.000043	0.000174	-0.000023	0.719861	0.533729	0.443772	-0.652966	0.737571	0.172120	-0.235448	-0.413670	0.879455
11083		5.365368	2.025759	10.664220	-0.005441	0.014492	-0.000658	1.000000	-0.000068	0.000181	-0.000008	0.719705	0.533958	0.443749	-0.653210	0.737337	0.172194	-0.235248	-0.413790	0.879452
11084		5.358055	2.003412	10.662411	-0.003559	0.012833	0.000203	1.000000	-0.000044	0.000160	0.000003	0.719689	0.534004	0.443720	-0.653233	0.737324	0.172160	-0.235231	-0.413755	0.879473
11085		5.364001	2.043356	10.655376	-0.002536	0.013171	-0.003691	1.000000	-0.000032	0.000165	-0.000046	0.719884	0.533612	0.443876	-0.652923	0.737585	0.172221	-0.235497	-0.413796	0.879383
11086		5.360307	2.029206	10.658641	-0.003147	0.011434	-0.001335	1.000000	-0.000039	0.000143	-0.000017	0.719935	0.533434	0.444008	-0.652787	0.737720	0.172158	-0.235718	-0.413785	0.879329
11087		5.366348	2.055078	10.652965	-0.004832	0.011980	-0.000749	1.000000	-0.000060	0.000150	-0.000009	0.719956	0.533387	0.444028	-0.652720	0.737805	0.172048	-0.235838	-0.413693	0.879340
11088		5.365309	2.019915	10.664768	-0.005322	0.014760	0.001771	1.000000	-0.000067	0.000184	0.000022	0.719870	0.533605	0.443907	-0.652859	0.737704	0.171953	-0.235717	-0.413592	0.879420
11089		5.361629	2.018632	10.666862	-0.003727	0.013061	-0.000620	1.000000	-0.000047	0.000163	-0.000008	0.719770	0.533739	0.443907	-0.653008	0.737562	0.171996	-0.235607	-0.413672	0.879411
11090		5.350165	2.032382	10.671584	-0.001769	0.010024	-0.000739	1.000000	-0.000022	0.000125	-0.000009	0.719680	0.533959	0.443789	-0.653178	0.737410	0.172002	-0.235412	-0.413660	0.879470
11091		5.364582	2.030108	10.664204	-0.005643	0.011362	0.000163	1.000000	-0.000071	0.000142	0.000002	0.719728	0.533950	0.443721	-0.653080	0.737545	0.171793	-0.235536	-0.413430	0.879545
11092		5.370149	2.041366	10.660285	-0.006638	0.014389	0.002416	1.000000	-0.000083	0.000180	0.000030	0.719673	0.534015	0.443732	-0.653140	0.737503	0.171747	-0.235538	-0.413421	0.879548
11093		5.372295	2.013360	10.677560	-0.005873	0.013378	-0.001896	1.000000	-0.000073	0.000167	-0.000024	0.719576	0.534213	0.443652	-0.653304	0.737359	0.171745	-0.235382	-0.413423	0.879589
11094		5.368398	2.030326	10.654542	-0.004167	0.011522	0.000351	1.000000	-0.000052	0.000144	0.000004	0.719420	0.534399	0.443680	-0.653531	0.737138	0.171830	-0.235228	-0.413577	0.879558
11095		5.364995	2.028866	10.656535	-0.005962	0.014342	0.001300	1.000000	-0.000075	0.000179	0.000016	0.719436	0.534409	0.443642	-0.653481	0.737218	0.171674	-0.235316	-0.413420	0.879608
11096		5.360632	1.999807	10.661645	-0.005283	0.014292	0.000182	1.000000	-0.000066	0.000179	0.000002	0.719425	0.534470	0.443587	-0.653499	0.737217	0.171610	-0.235300	-0.413344	0.879648
11097		5.363588	2.013418	10.674494	-0.004736	0.013567	-0.001146	1.000000	-0.000059	0.000170	-0.000014	0.719460	0.534436	0.443571	-0.653434	0.737296	0.171520	-0.235377	-0.413246	0.879673
11098		5.343300	2.027624	10.683807	-0.002777	0.010527	-0.001266	1.000000	-0.000035	0.000132	-0.000016	0.719492	0.534360	0.443610	-0.653361	0.737372	0.171471	-0.235479	-0.413210	0.879663
11099		5.356531	2.016343	10.654453	-0.004288	0.011269	-0.002069	1.000000	-0.000054	0.000141	-0.000026	0.719559	0.534189	0.443708	-0.653216	0.737514	0.171410	-0.235676	-0.413177	0.879626
11100		5.365765	2.035959	10.655609	-0.004125	0.011049	-0.001241	1.000000	-0.000052	0.000138	-0.000016	0.719450	0.534328	0.443717	-0.653389	0.737339	0.171506	-0.235530	-0.413310	0.879603
11101		5.367499	2.013078	10.649066	-0.004575	0.013351	-0.000316	1.000000	-0.000057	0.000167	-0.000004	0.719510	0.534211	0.443762	-0.653267	0.737467	0.171419	-0.235686	-0.413233	0.879597
11102		5.353181	2.014566	10.672086	-0.003654	0.011702	-0.001588	1.000000	-0.000046	0.000146	-0.000020	0.719493	0.534269	0.443718	-0.653287	0.737465	0.171348	-0.235681	-0.413160	0.879633
11103		5.356046	2.032972	10.661067	-0.004303	0.010857	0.000147	1.000000	-0.000054	0.000136	0.000002	0.719361	0.534466	0.443696	-0.653481	0.737291	0.171360	-0.235547	-0.413217	0.879642
11104		5.364442	2.011079	10.666605	-0.004675	0.011781	0.000091	1.000000	-0.000058	0.000147	0.000001	0.719280	0.534612	0.443651	-0.653595	0.737203	0.171306	-0.235479	-0.413185	0.879675
11105		5.358606	2.029795	10.660149	-0.005310	0.011354	-0.000387	1.000000	-0.000066	0.000142	-0.000005	0.719365	0.534427	0.443736	-0.653404	0.737408	0.171150	-0.235747	-0.413059	0.879662
11106		5.372738	2.026967	10.653124	-0.005729	0.012758	0.001155	1.000000	-0.000072	0.000159	0.000014	0.719406	0.534379	0.443728	-0.653300	0.737544	0.170961	-0.235911	-0.412878	0.879703
11107		5.360667	2.026157	10.659577	-0.004415	0.013137	0.000517	1.000000	-0.000055	0.000164	0.000006	0.719282	0.534493	0.443792	-0.653469	0.737375	0.171043	-0.235820	-0.413032	0.879655
11108		5.362557	2.016557	10.651757	-0.006233	0.013009	0.000888	1.000000	-0.000078	0.000163	0.000011	0.719283	0.534502	0.443779	-0.653435	0.737437	0.170904	-0.235911	-0.412909	0.879688
11109		5.348194	2.017645	10.674827	-0.003865	0.012413	-0.000810	1.000000	-0.000048	0.000155	-0.000010	0.719183	0.534622	0.443797	-0.653580	0.737298	0.170951	-0.235816	-0.413002	0.879671
11110		5.368411	2.034842	10.654928	-0.003754	0.010138	-0.001177	1.000000	-0.000047	0.000127	-0.000015	0.719149	0.534633	0.443837	-0.653609	0.737274	0.170944	-0.235837	-0.413030	0.879652
11111		5.362959	2.035264	10.673424	-0.006738	0.013261	0.000622	1.000000	-0.000084	0.000166	0.000008	0.719270	0.534357	0.443974	-0.653359	0.737524	0.170823	-0.236161	-0.412943	0.879606
11112		5.370840	2.012399	10.679406	-0.008265	0.013587	0.002032	1.000000	-0.000103	0.000170	0.000025	0.719182	0.534487	0.443960	-0.653450	0.737474	0.170689	-0.236178	-0.412862	0.879639
11113		5.372217	2.020218	10.646915	-0.008086	0.013786	0.000647	1.000000	-0.000101	0.000172	0.000008	0.719116	0.534595	0.443937	-0.653519	0.737438	0.170578	-0.236186	-0.412787	0.879672
11114		5.345792	2.013959	10.669135	-0.006318	0.011863	-0.000916	1.000000	-0.000079	0.000148	-0.000011	0.719104	0.534626	0.443920	-0.653528	0.737444	0.170520	-0.236201	-0.412736	0.879692
11115		5.354850	2.032798	10.670620	-0.006368	0.012343	0.000683	1.000000	-0.000080	0.000154	0.000009	0.719110	0.534603	0.443939	-0.653466	0.737539	0.170347	-0.236354	-0.412597	0.879716
11116		5.348281	2.023478	10.667208	-0.007504	0.012165	-0.000065	1.000000	-0.000094	0.000152	-0.000001	0.719173	0.534572	0.443873	-0.653337	0.737711	0.170099	-0.236520	-0.412329	0.879797
11117		5.374781	2.022542	10.684913	-0.005978	0.014376	0.001323	1.000000	-0.000075	0.000180	0.000017	0.719173	0.534553	0.443895	-0.653300	0.737768	0.169994	-0.236621	-0.412252	0.879806
11118		5.370100	2.011526	10.665069	-0.006612	0.013950	0.000843	1.000000	-0.000083	0.000174	0.000011	0.719239	0.534416	0.443954	-0.653160	0.737916	0.169889	-0.236809	-0.412163	0.879797
11119		5.358100	2.023895	10.670288	-0.007587	0.013549	0.000922	1.000000	-0.000095	0.000169	0.000012	0.719104	0.534606	0.443943	-0.653339	0.737766	0.169851	-0.236723	-0.412186	0.879810
11120		5.374679	2.013788	10.670641	-0.010152	0.015272	0.001179	1.000000	-0.000127	0.000191	0.000015	0.719079	0.534592	0.444001	-0.653316	0.737818	0.169716	-0.236863	-0.412112	0.879806
11121		5.346745	1.997646	10.671121	-0.007670	0.014932	0.001909	1.000000	-0.000096	0.000187	0.000024	0.719029	0.534659	0.444001	-0.653360	0.737799	0.169626	-0.236891	-0.412058	0.879824
11122		5.355757	2.030034	10.671473	-0.004894	0.012510	0.000883	1.000000	-0.000061	0.000156	0.000011	0.718949	0.534802	0.443959	-0.653465	0.737726	0.169543	-0.236848	-0.412005	0.879861
11123		5.366836	2.019843	10.659009	-0.005917	0.010052	-0.000239	1.000000	-0.000074	0.000126	-0.000003	0.718922	0.534829	0.443970	-0.653460	0.737762	0.169405	-0.236941	-0.411905	0.879882
11124		5.363463	2.008730	10.638540	-0.007096	0.009031	0.003435	1.000000	-0.000089	0.000113	0.000043	0.718746	0.534976	0.444078	-0.653636	0.737627	0.169309	-0.236988	-0.411955	0.879846
11125		5.361178	2.002224	10.663828	-0.005267	0.013439	0.000831	1.000000	-0.000066	0.000168	0.000010	0.718731	0.534991	0.444084	-0.653649	0.737621	0.169285	-0.237000	-0.411946	0.879847
11126		5.361414	2.008476	10.671014	-0.003093	0.009687	-0.000066	1.000000	-0.000039	0.000121	-0.000001	0.718762	0.534822	0.444237	-0.653549	0.737710	0.169284	-0.237182	-0.412006	0.879771
11127		5.347112	2.027970	10.668908	-0.005238	0.012541	0.001446	1.000000	-0.000065	0.000157	0.000018	0.718731	0.534886	0.444210	-0.653553	0.737748	0.169104	-0.237264	-0.411856	0.879819
11128		5.365044	2.014184	10.692209	-0.005628	0.010512	0.000805	1.000000	-0.000070	0.000131	0.000010	0.718635	0.534956	0.444281	-0.653638	0.737691	0.169026	-0.237320	-0.411867	0.879798
11129		5.379235	2.015739	10.661587	-0.006733	0.009433	0.000667	1.000000	-0.000084	0.000118	0.000008	0.718481	0.535142	0.444306	-0.653823	0.737541	0.168961	-0.237276	-0.411893	0.879798
11130		5.349541	2.006537	10.654446	-0.007479	0.011287	0.000558	1.000000	-0.000093	0.000141	0.000007	0.718397	0.535279	0.444277	-0.653916	0.737488	0.168837	-0.237274	-0.411812	0.879837
11131		5.371039	2.013658	10.681868	-0.005370	0.011869	0.001236	1.000000	-0.000067	0.000148	0.000015	0.718253	0.535534	0.444202	-0.654118	0.737329	0.168747	-0.237154	-0.411764	0.879891
11132		5.372716	2.008806	10.650430	-0.004844	0.012044	-0.000707	1.000000	-0.000061	0.000151	-0.000009	0.718129	0.535764	0.444127	-0.654303	0.737178	0.168691	-0.237022	-0.411735	0.879940
11133		5.360566	2.007824	10.656865	-0.006962	0.014000	0.001418	1.000000	-0.000087	0.000175	0.000018	0.717990	0.536045	0.444011	-0.654502	0.737030	0.168565	-0.236890	-0.411634	0.880023
11134		5.365985	2.000739	10.678210	-0.006306	0.014853	-0.000309	1.000000	-0.000079	0.000186	-0.000004	0.717923	0.536213	0.443916	-0.654606	0.736956	0.168482	-0.236805	-0.411548	0.880086
11135		5.357088	2.007328	10.690062	-0.004816	0.011147	-0.000091	1.000000	-0.000060	0.000139	-0.000001	0.717872	0.536248	0.443957	-0.654652	0.736924	0.168443	-0.236835	-0.411558	0.880073
11136		5.373466	1.989413	10.667829	-0.004214	0.012478	-0.000219	1.000000	-0.000053	0.000156	-0.000003	0.717808	0.536381	0.443899	-0.654751	0.736844	0.168408	-0.236754	-0.411528	0.880109
11137		5.374095	2.023071	10.672423	-0.005189	0.012077	-0.000144	1.000000	-0.000065	0.000151	-0.000002	0.717785	0.536411	0.443900	-0.654769	0.736840	0.168358	-0.236775	-0.411497	0.880118
11138		5.364374	2.006570	10.663429	-0.007642	0.011523	-0.000264	1.000000	-0.000096	0.000144	-0.000003	0.717772	0.536406	0.443928	-0.654739	0.736899	0.168215	-0.236899	-0.411397	0.880131
11139		5.361415	2.004732	10.665263	-0.005345	0.010978	0.001854	1.000000	-0.000067	0.000137	0.000023	0.717604	0.536663	0.443889	-0.654960	0.736723	0.168129	-0.236795	-0.411380	0.880168
11140		5.357772	1.989433	10.668590	-0.005304	0.014364	0.000236	1.000000	-0.000066	0.000180	0.000003	0.717468	0.536955	0.443756	-0.655190	0.736524	0.168106	-0.236571	-0.411355	0.880239
11141		5.357808	2.009422	10.674688	-0.004159	0.012008	-0.001814	1.000000	-0.000052	0.000150	-0.000023	0.717397	0.537068	0.443735	-0.655294	0.736433	0.168098	-0.236500	-0.411370	0.880251
11142		5.366065	2.019625	10.654176	-0.005535	0.012109	0.000418	1.000000	-0.000069	0.000151	0.000005	0.717324	0.537086	0.443830	-0.655393	0.736314	0.168230	-0.236444	-0.411558	0.880178
11143		5.380168	1.998530	10.672294	-0.005593	0.013916	-0.000803	1.000000	-0.000070	0.000174	-0.000010	0.717303	0.537132	0.443808	-0.655418	0.736302	0.168185	-0.236439	-0.411519	0.880198
11144		5.344579	2.011774	10.673770	-0.004561	0.012515	0.000347	1.000000	-0.000057	0.000156	0.000004	0.717276	0.537203	0.443766	-0.655436	0.736317	0.168053	-0.236473	-0.411400	0.880244
11145		5.358363	1.995208	10.668368	-0.006096	0.012841	0.001752	1.000000	-0.000076	0.000161	0.000022	0.717233	0.537230	0.443802	-0.655470	0.736294	0.168016	-0.236506	-0.411406	0.880233
11146		5.366755	1.986542	10.672792	-0.005537	0.012115	0.000422	1.000000	-0.000069	0.000151	0.000005	0.717240	0.537181	0.443850	-0.655429	0.736343	0.167964	-0.236599	-0.411383	0.880219
11147		5.375720	2.005856	10.674461	-0.004031	0.012694	-0.001592	1.000000	-0.000050	0.000159	-0.000020	0.717265	0.537112	0.443893	-0.655381	0.736383	0.167973	-0.236656	-0.411401	0.880195
11148		5.363050	1.992187	10.682091	-0.002239	0.013727	-0.002562	1.000000	-0.000028	0.000172	-0.000032	0.717243	0.537220	0.443799	-0.655457	0.736307	0.168012	-0.236513	-0.411397	0.880235
11149		5.359673	2.010341	10.658969	-0.001436	0.010064	-0.001233	1.000000	-0.000018	0.000126	-0.000015	0.717170	0.537265	0.443861	-0.655559	0.736195	0.168106	-0.236451	-0.411538	0.880186
11150		5.356455	2.009672	10.660713	-0.004750	0.013652	-0.001086	1.000000	-0.000059	0.000171	-0.000014	0.717183	0.537250	0.443858	-0.655547	0.736201	0.168125	-0.236444	-0.411547	0.880184
11151		5.364265	2.001504	10.665353	-0.004838	0.015034	-0.000095	1.000000	-0.000060	0.000188	-0.000001	0.717172	0.537315	0.443799	-0.655574	0.736186	0.168083	-0.236405	-0.411488	0.880222
11152		5.366597	2.001463	10.679799	-0.003619	0.013832	-0.000328	1.000000	-0.000045	0.000173	-0.000004	0.717227	0.537184	0.443869	-0.655475	0.736272	0.168092	-0.236512	-0.411505	0.880185
11153		5.371991	2.013521	10.676155	-0.004595	0.013431	-0.000256	1.000000	-0.000057	0.000168	-0.000003	0.717183	0.537284	0.443818	-0.655532	0.736241	0.168011	-0.236488	-0.411431	0.880226
11154		5.345505	2.007703	10.697857	-0.005012	0.010971	0.001306	1.000000	-0.000063	0.000137	0.000016	0.717114	0.537381	0.443813	-0.655600	0.736204	0.167905	-0.236509	-0.411371	0.880249
11155		5.362383	2.008333	10.650681	-0.003544	0.009491	-0.001913	1.000000	-0.000044	0.000119	-0.000024	0.717189	0.537128	0.443997	-0.655449	0.736321	0.167980	-0.236698	-0.411491	0.880142
11156		5.365215	2.013077	10.641209	-0.004568	0.012531	0.000357	1.000000	-0.000057	0.000157	0.000004	0.717161	0.537175	0.443985	-0.655481	0.736302	0.167941	-0.236694	-0.411465	0.880155
11157		5.364333	1.991731	10.651361	-0.004311	0.013889	0.000791	1.000000	-0.000054	0.000174	0.000010	0.717023	0.537398	0.443939	-0.655687	0.736119	0.167937	-0.236543	-0.411500	0.880179
11158		5.349731	2.006550	10.673039	-0.004597	0.013438	-0.000251	1.000000	-0.000057	0.000168	-0.000003	0.716920	0.537558	0.443912	-0.655829	0.736001	0.167901	-0.236463	-0.411501	0.880200
11159		5.366548	1.984026	10.674405	-0.004324	0.010927	0.000195	1.000000	-0.000054	0.000137	0.000002	0.716873	0.537549	0.443998	-0.655866	0.735964	0.167919	-0.236502	-0.411579	0.880153
11160		5.360845	2.002809	10.668056	-0.004915	0.012561	0.000917	1.000000	-0.000061	0.000157	0.000011	0.716819	0.537662	0.443948	-0.655931	0.735929	0.167819	-0.236484	-0.411496	0.880197
11161		5.374462	1.986509	10.662776	-0.004470	0.014122	-0.000031	1.000000	-0.000056	0.000177	-0.000000	0.716818	0.537639	0.443977	-0.655917	0.735946	0.167800	-0.236528	-0.411494	0.880186
11162		5.348154	2.008456	10.681920	-0.003751	0.013169	-0.000534	1.000000	-0.000047	0.000165	-0.000007	0.716861	0.537558	0.444006	-0.655837	0.736025	0.167764	-0.236617	-0.411459	0.880178
11163		5.370481	1.996360	10.648708	-0.004387	0.011409	0.001799	1.000000	-0.000055	0.000143	0.000022	0.716784	0.537594	0.444087	-0.655912	0.735958	0.167762	-0.236642	-0.411532	0.880138
11164		5.355831	1.983726	10.672696	-0.004136	0.011135	-0.001185	1.000000	-0.000052	0.000139	-0.000015	0.716702	0.537706	0.444084	-0.656021	0.735866	0.167742	-0.236590	-0.411549	0.880143
11165		5.367058	2.006333	10.634350	-0.003624	0.013852	-0.000314	1.000000	-0.000045	0.000173	-0.000004	0.716624	0.537820	0.444071	-0.656140	0.735753	0.167772	-0.236496	-0.411603	0.880144
11166		5.364157	1.996155	10.683174	-0.003033	0.012220	-0.001035	1.000000	-0.000038	0.000153	-0.000013	0.716504	0.537992	0.444057	-0.656321	0.735582	0.167814	-0.236358	-0.411684	0.880143
11167		5.358265	2.015197	10.676890	-0.004919	0.012571	0.000922	1.000000	-0.000061	0.000157	0.000012	0.716493	0.537965	0.444107	-0.656306	0.735605	0.167772	-0.236432	-0.411678	0.880126
11168		5.357055	1.998531	10.663574	-0.003972	0.013881	0.000246	1.000000	-0.000050	0.000174	0.000003	0.716442	0.538081	0.444050	-0.656379	0.735556	0.167704	-0.236385	-0.411615	0.880168
11169		5.353781	1.992986	10.688969	-0.003189	0.012451	-0.001859	1.000000	-0.000040	0.000156	-0.000023	0.716474	0.538049	0.444037	-0.656335	0.735599	0.167684	-0.236411	-0.411578	0.880178
11170		5.365293	2.015870	10.650495	-0.003135	0.010640	-0.000641	1.000000	-0.000039	0.000133	-0.000008	0.716437	0.538027	0.444123	-0.656366	0.735560	0.167734	-0.236434	-0.411678	0.880125
11171		5.347790	2.004876	10.691163	-0.005140	0.013280	0.001700	1.000000	-0.000064	0.000166	0.000021	0.716529	0.537845	0.444196	-0.656183	0.735750	0.167617	-0.236665	-0.411576	0.880111
11172		5.358764	1.994712	10.679021	-0.005833	0.011698	-0.000608	1.000000	-0.000073	0.000146	-0.000008	0.716530	0.537794	0.444256	-0.656148	0.735791	0.167573	-0.236760	-0.411569	0.880089
11173		5.361746	2.008452	10.691980	-0.002935	0.013815	-0.001418	1.000000	-0.000037	0.000173	-0.000018	0.716579	0.537713	0.444274	-0.656073	0.735860	0.167569	-0.236819	-0.411552	0.880080
11174		5.366693	1.998225	10.667290	-0.002133	0.010141	-0.000097	1.000000	-0.000027	0.000127	-0.000001	0.716555	0.537730	0.444291	-0.656084	0.735862	0.167515	-0.236859	-0.411526	0.880082
11175		5.363596	1.997614	10.668962	-0.002908	0.012911	-0.000808	1.000000	-0.000036	0.000161	-0.000010	0.716440	0.537914	0.444254	-0.656265	0.735692	0.167552	-0.236705	-0.411589	0.880094
11176		5.363234	2.004319	10.676407	-0.003564	0.013392	-0.001904	1.000000	-0.000045	0.000167	-0.000024	0.716343	0.538049	0.444248	-0.656421	0.735535	0.167631	-0.236566	-0.411695	0.880082
11177		5.365099	1.995421	10.668630	-0.003977	0.013894	0.000254	1.000000	-0.000050	0.000174	0.000003	0.716294	0.538200	0.444144	-0.656497	0.735491	0.167523	-0.236503	-0.411575	0.880155
11178		5.361318	1.994213	10.670756	-0.005762	0.014200	-0.001602	1.000000	-0.000072	0.000177	-0.000020	0.716287	0.538274	0.444065	-0.656514	0.735496	0.167439	-0.236480	-0.411469	0.880210
11179		5.358373	2.002369	10.694812	-0.002316	0.011282	-0.001527	1.000000	-0.000029	0.000141	-0.000019	0.716188	0.538374	0.444104	-0.656663	0.735340	0.167541	-0.236367	-0.411617	0.880172
11180		5.372159	1.991275	10.665905	-0.004581	0.012564	0.000375	1.000000	-0.000057	0.000157	0.000005	0.716255	0.538214	0.444190	-0.656525	0.735474	0.167488	-0.236546	-0.411586	0.880138
11181		5.357225	1.997409	10.665152	-0.002190	0.011964	-0.001306	1.000000	-0.000027	0.000150	-0.000016	0.716255	0.538229	0.444171	-0.656520	0.735488	0.167449	-0.236557	-0.411543	0.880155
11182		5.348386	2.004780	10.676703	-0.003386	0.012266	-0.000465	1.000000	-0.000042	0.000153	-0.000006	0.716293	0.538175	0.444175	-0.656449	0.735567	0.167381	-0.236640	-0.411472	0.880166
11183		5.365681	2.009836	10.675654	-0.004956	0.013500	0.000326	1.000000	-0.000062	0.000169	0.000004	0.716296	0.538191	0.444153	-0.656433	0.735599	0.167303	-0.236677	-0.411395	0.880192
11184		5.358603	2.000944	10.672352	-0.006206	0.015618	-0.000046	1.000000	-0.000078	0.000195	-0.000001	0.716228	0.538358	0.444058	-0.656540	0.735521	0.167226	-0.236587	-0.411314	0.880254
11185		5.363389	1.998995	10.670353	-0.004135	0.014135	-0.000564	1.000000	-0.000052	0.000177	-0.000007	0.716101	0.538557	0.444021	-0.656730	0.735348	0.167239	-0.236443	-0.411362	0.880271
11186		5.359908	2.007280	10.694634	-0.002338	0.015172	-0.001520	1.000000	-0.000029	0.000190	-0.000019	0.716344	0.538176	0.444092	-0.656373	0.735665	0.167244	-0.236696	-0.411294	0.880234
11187		5.361108	2.007597	10.640232	-0.007184	0.015221	0.000021	1.000000	-0.000090	0.000190	0.000000	0.716308	0.538258	0.444051	-0.656415	0.735647	0.167159	-0.236691	-0.411219	0.880271
11188		5.360195	1.994834	10.672786	-0.005613	0.013990	-0.000766	1.000000	-0.000070	0.000175	-0.000010	0.716343	0.538214	0.444047	-0.656358	0.735707	0.167121	-0.236742	-0.411170	0.880280
11189		5.347663	1.999155	10.655594	-0.002915	0.012933	-0.000793	1.000000	-0.000036	0.000162	-0.000010	0.716333	0.538238	0.444035	-0.656380	0.735683	0.167136	-0.236710	-0.411181	0.880283
11190		5.365268	2.000161	10.677826	-0.001470	0.011020	-0.001801	1.000000	-0.000018	0.000138	-0.000023	0.716303	0.538218	0.444108	-0.656421	0.735625	0.167235	-0.236688	-0.411312	0.880228
11191		5.359197	2.011044	10.649153	-0.001692	0.011725	-0.001025	1.000000	-0.000021	0.000147	-0.000013	0.716230	0.538344	0.444072	-0.656533	0.735525	0.167234	-0.236597	-0.411326	0.880246
11192		5.362548	2.020605	10.685348	-0.002668	0.011323	-0.000960	1.000000	-0.000033	0.000142	-0.000012	0.716190	0.538363	0.444113	-0.656580	0.735478	0.167258	-0.236590	-0.411384	0.880221
11193		5.358646	1.992432	10.689668	-0.003543	0.012510	-0.001281	1.000000	-0.000044	0.000156	-0.000016	0.716281	0.538267	0.444085	-0.656451	0.735605	0.167201	-0.236672	-0.411283	0.880246
11194		5.364259	2.009650	10.662554	-0.002416	0.012686	-0.000518	1.000000	-0.000030	0.000159	-0.000006	0.716148	0.538469	0.444053	-0.656663	0.735400	0.167273	-0.236485	-0.411386	0.880248
11195		5.354980	2.017049	10.674284	-0.002817	0.014530	-0.001174	1.000000	-0.000035	0.000182	-0.000015	0.716068	0.538664	0.443945	-0.656813	0.735266	0.167275	-0.236312	-0.411369	0.880302
11196		5.356532	2.008042	10.666741	-0.005088	0.015815	0.000726	1.000000	-0.000064	0.000198	0.000009	0.716047	0.538718	0.443915	-0.656849	0.735236	0.167262	-0.236275	-0.411352	0.880320
11197		5.347191	2.014691	10.678634	-0.004869	0.012136	-0.000659	1.000000	-0.000061	0.000152	-0.000008	0.716044	0.538721	0.443916	-0.656844	0.735249	0.167228	-0.236300	-0.411327	0.880325
11198		5.360503	1.984986	10.674753	-0.003945	0.014361	-0.001933	1.000000	-0.000049	0.000180	-0.000024	0.716024	0.538813	0.443836	-0.656899	0.735201	0.167222	-0.236208	-0.411290	0.880367
11199		5.351589	2.010990	10.661691	-0.002124	0.011513	-0.002890	1.000000	-0.000027	0.000144	-0.000036	0.716026	0.538783	0.443869	-0.656899	0.735188	0.167279	-0.236200	-0.411353	0.880340
11200		5.360037	1.998771	10.689469	-0.003672	0.011839	-0.001496	1.000000	-0.000046	0.000148	-0.000019	0.715973	0.538832	0.443894	-0.656970	0.735117	0.167313	-0.236161	-0.411417	0.880320
11201		5.356610	2.007396	10.644439	-0.004397	0.012799	-0.000991	1.000000	-0.000055	0.000160	-0.000012	0.716016	0.538758	0.443915	-0.656901	0.735181	0.167300	-0.236224	-0.411398	0.880312
11202		5.359121	2.002723	10.682218	-0.003422	0.013204	-0.001052	1.000000	-0.000043	0.000165	-0.000013	0.716004	0.538806	0.443876	-0.656923	0.735169	0.167268	-0.236199	-0.411357	0.880338
11203		5.373259	2.014355	10.674622	-0.004798	0.014646	-0.001645	1.000000	-0.000060	0.000183	-0.000021	0.716012	0.538828	0.443837	-0.656922	0.735174	0.167250	-0.236178	-0.411320	0.880361
11204		5.361079	2.013911	10.680716	-0.004123	0.010277	-0.000554	1.000000	-0.000052	0.000128	-0.000007	0.715969	0.538803	0.443937	-0.656950	0.735144	0.167271	-0.236231	-0.411405	0.880307
11205		5.354958	2.005682	10.676794	-0.003174	0.011593	-0.001220	1.000000	-0.000040	0.000145	-0.000015	0.715855	0.538964	0.443926	-0.657125	0.734975	0.167327	-0.236091	-0.411497	0.880302
11206		5.354239	1.994185	10.639804	-0.004098	0.012347	0.000666	1.000000	-0.000051	0.000154	0.000008	0.715809	0.538977	0.443983	-0.657168	0.734935	0.167334	-0.236110	-0.411550	0.880272
11207		5.368885	2.001028	10.655428	-0.003049	0.012277	-0.000997	1.000000	-0.000038	0.000153	-0.000012	0.715792	0.539016	0.443964	-0.657192	0.734920	0.167308	-0.236096	-0.411527	0.880286
11208		5.365499	1.995601	10.680684	-0.003200	0.012508	-0.001823	1.000000	-0.000040	0.000156	-0.000023	0.715818	0.538971	0.443976	-0.657150	0.734959	0.167300	-0.236134	-0.411515	0.880281
11209		5.356231	2.003047	10.692356	-0.002600	0.013848	-0.001933	1.000000	-0.000032	0.000173	-0.000024	0.715883	0.538892	0.443968	-0.657074	0.735019	0.167337	-0.236149	-0.411513	0.880279
11210		5.352802	2.002450	10.694184	-0.003025	0.011369	-0.000390	1.000000	-0.000038	0.000142	-0.000005	0.715909	0.538814	0.444021	-0.657021	0.735063	0.167346	-0.236215	-0.411536	0.880250
11211		5.364364	2.012009	10.657270	-0.001375	0.012639	-0.002163	1.000000	-0.000017	0.000158	-0.000027	0.715905	0.538789	0.444057	-0.657039	0.735026	0.167441	-0.236178	-0.411635	0.880214
11212		5.354827	2.005983	10.670111	-0.001951	0.013369	-0.000832	1.000000	-0.000024	0.000167	-0.000010	0.715814	0.538939	0.444021	-0.657189	0.734881	0.167489	-0.236036	-0.411697	0.880223
11213		5.368961	2.004319	10.663605	-0.003476	0.012063	-0.002867	1.000000	-0.000043	0.000151	-0.000036	0.715781	0.538937	0.444077	-0.657235	0.734821	0.167570	-0.236008	-0.411807	0.880179
11214		5.356515	2.004159	10.669745	-0.004303	0.014410	-0.001364	1.000000	-0.000054	0.000180	-0.000017	0.715885	0.538820	0.444051	-0.657093	0.734957	0.167533	-0.236088	-0.411717	0.880200
11215		5.355790	1.997353	10.678438	-0.000501	0.011455	-0.001837	1.000000	-0.000006	0.000143	-0.000023	0.715802	0.538929	0.444053	-0.657229	0.734815	0.167622	-0.235960	-0.411829	0.880182
11216		5.364485	2.008644	10.658148	-0.002929	0.012970	-0.000768	1.000000	-0.000037	0.000162	-0.000010	0.715892	0.538835	0.444023	-0.657105	0.734937	0.167574	-0.236034	-0.411735	0.880206
11217		5.366864	2.008692	10.672545	-0.004631	0.013526	-0.000203	1.000000	-0.000058	0.000169	-0.000003	0.715933	0.538777	0.444027	-0.657039	0.735003	0.167542	-0.236093	-0.411692	0.880210
11218		5.356832	1.992965	10.663445	-0.003180	0.014591	-0.000593	1.000000	-0.000040	0.000182	-0.000007	0.716066	0.538627	0.443994	-0.656858	0.735175	0.167497	-0.236195	-0.411580	0.880235
11219		5.356790	2.018391	10.646251	-0.001079	0.012189	-0.000502	1.000000	-0.000013	0.000152	-0.000006	0.715983	0.538774	0.443948	-0.656994	0.735047	0.167525	-0.236064	-0.411617	0.880253
11220		5.356705	2.038868	10.652500	-0.004930	0.013992	-0.001854	1.000000	-0.000062	0.000175	-0.000023	0.715871	0.538938	0.443931	-0.657167	0.734881	0.167575	-0.235924	-0.411699	0.880252
11221		5.363473	1.984872	10.684437	-0.003931	0.013486	-0.001308	1.000000	-0.000049	0.000169	-0.000016	0.715927	0.538884	0.443905	-0.657090	0.734958	0.167539	-0.235967	-0.411631	0.880272
11222		5.345924	2.024987	10.674449	-0.002832	0.014574	-0.001143	1.000000	-0.000035	0.000182	-0.000014	0.715853	0.539007	0.443876	-0.657219	0.734829	0.167602	-0.235834	-0.411702	0.880275
11223		5.359551	2.009068	10.669443	-0.005110	0.012877	0.000132	1.000000	-0.000064	0.000161	0.000002	0.715846	0.539017	0.443876	-0.657215	0.734844	0.167549	-0.235868	-0.411661	0.880285
11224		5.361491	1.995174	10.685168	-0.003808	0.014173	-0.001082	1.000000	-0.000048	0.000177	-0.000014	0.715777	0.539151	0.443824	-0.657329	0.734740	0.167555	-0.235758	-0.411671	0.880310
11225		5.343372	2.007788	10.677621	-0.003081	0.013215	-0.001585	1.000000	-0.000039	0.000165	-0.000020	0.715927	0.538933	0.443846	-0.657116	0.734931	0.167556	-0.235895	-0.411617	0.880298
11226		5.369331	1.999476	10.673750	-0.000276	0.010764	-0.002601	1.000000	-0.000003	0.000135	-0.000033	0.715912	0.538966	0.443830	-0.657155	0.734886	0.167602	-0.235833	-0.411653	0.880298
11227		5.351283	2.007619	10.689453	-0.004809	0.014686	-0.001625	1.000000	-0.000060	0.000184	-0.000020	0.716018	0.538869	0.443777	-0.657010	0.735032	0.167528	-0.235915	-0.411519	0.880339
11228		5.356405	2.010847	10.664022	-0.003663	0.013948	-0.000252	1.000000	-0.000046	0.000174	-0.000003	0.716047	0.538825	0.443785	-0.656967	0.735072	0.167522	-0.235949	-0.411505	0.880336
11229		5.349371	1.997885	10.683873	-0.002959	0.013903	-0.001358	1.000000	-0.000037	0.000174	-0.000017	0.716036	0.538844	0.443779	-0.656988	0.735050	0.167537	-0.235923	-0.411520	0.880336
11230		5.363853	2.010156	10.676209	-0.001776	0.011533	-0.003415	1.000000	-0.000022	0.000144	-0.000043	0.715914	0.539026	0.443754	-0.657187	0.734850	0.167629	-0.235736	-0.411638	0.880331
11231		5.366968	2.029177	10.665752	-0.004536	0.012159	-0.001194	1.000000	-0.000057	0.000152	-0.000015	0.716041	0.538836	0.443780	-0.656988	0.735043	0.167566	-0.235907	-0.411542	0.880330
11232		5.348116	2.008893	10.684138	-0.005869	0.014765	0.000039	1.000000	-0.000073	0.000185	0.000000	0.715992	0.538928	0.443747	-0.657055	0.734993	0.167523	-0.235868	-0.411512	0.880355
11233		5.350022	1.999988	10.676505	-0.002110	0.013632	-0.001634	1.000000	-0.000026	0.000170	-0.000020	0.715909	0.539097	0.443676	-0.657205	0.734849	0.167565	-0.235702	-0.411548	0.880382
11234		5.358590	2.020010	10.678729	-0.002815	0.013680	-0.000527	1.000000	-0.000035	0.000171	-0.000007	0.716045	0.538924	0.443666	-0.657015	0.735027	0.167531	-0.235820	-0.411455	0.880394
11235		5.340019	2.019106	10.672407	-0.001864	0.015001	-0.001184	1.000000	-0.000023	0.000188	-0.000015	0.716033	0.539000	0.443594	-0.657064	0.734977	0.167558	-0.235717	-0.411447	0.880425
11236		5.362570	1.998492	10.686510	-0.001458	0.010164	-0.001155	1.000000	-0.000018	0.000127	-0.000014	0.715967	0.539026	0.443670	-0.657146	0.734888	0.167626	-0.235693	-0.411570	0.880374
11237		5.360004	2.016822	10.663473	-0.002505	0.012504	-0.002905	1.000000	-0.000031	0.000156	-0.000036	0.715979	0.539014	0.443664	-0.657146	0.734875	0.167685	-0.235653	-0.411611	0.880366
11238		5.359644	2.023367	10.670984	-0.004351	0.013095	0.001464	1.000000	-0.000054	0.000164	0.000018	0.715962	0.539035	0.443666	-0.657155	0.734879	0.167633	-0.235681	-0.411576	0.880375
11239		5.334784	1.997116	10.700237	-0.005351	0.013606	0.000919	1.000000	-0.000067	0.000170	0.000011	0.715887	0.539167	0.443627	-0.657257	0.734799	0.167579	-0.235624	-0.411545	0.880404
11240		5.351962	1.993423	10.677417	-0.002089	0.012728	-0.001025	1.000000	-0.000026	0.000159	-0.000013	0.715838	0.539253	0.443601	-0.657344	0.734712	0.167619	-0.235530	-0.411587	0.880410
11241		5.363865	2.012073	10.662912	-0.001859	0.012023	-0.001801	1.000000	-0.000023	0.000150	-0.000023	0.715847	0.539203	0.443647	-0.657334	0.734706	0.167690	-0.235531	-0.411665	0.880373
11242		5.354570	2.019494	10.674501	-0.003319	0.013947	-0.000793	1.000000	-0.000041	0.000174	-0.000010	0.715722	0.539387	0.443626	-0.657522	0.734530	0.167725	-0.235388	-0.411738	0.880377
11243		5.362955	2.016903	10.655684	-0.001361	0.011771	-0.001526	1.000000	-0.000017	0.000147	-0.000019	0.715548	0.539652	0.443584	-0.657792	0.734272	0.167792	-0.235163	-0.411849	0.880386
11244		5.359909	2.025683	10.679466	-0.001753	0.010637	-0.002801	1.000000	-0.000022	0.000133	-0.000035	0.715577	0.539572	0.443634	-0.657748	0.734299	0.167846	-0.235195	-0.411906	0.880350
11245		5.362414	2.017127	10.671511	-0.004918	0.013117	-0.001234	1.000000	-0.000061	0.000164	-0.000015	0.715564	0.539616	0.443602	-0.657766	0.734293	0.167801	-0.235186	-0.411859	0.880375
11246		5.346738	2.009380	10.672018	-0.003198	0.014636	-0.000564	1.000000	-0.000040	0.000183	-0.000007	0.715398	0.539899	0.443526	-0.658030	0.734047	0.167843	-0.234950	-0.411928	0.880405
11247		5.349088	2.010008	10.686306	-0.000632	0.010814	-0.002026	1.000000	-0.000008	0.000135	-0.000025	0.715357	0.539942	0.443539	-0.658102	0.733964	0.167922	-0.234874	-0.412018	0.880384
11248		5.364281	2.027956	10.655013	0.001526	0.011835	-0.003512	1.000000	0.000019	0.000148	-0.000044	0.715352	0.539966	0.443518	-0.658154	0.733885	0.168063	-0.234744	-0.412128	0.880367
11249		5.354419	2.008780	10.668798	-0.001386	0.012694	-0.002122	1.000000	-0.000017	0.000159	-0.000027	0.715402	0.539902	0.443514	-0.658100	0.733923	0.168111	-0.234742	-0.412143	0.880360
11250		5.363459	2.029062	10.670815	-0.002461	0.010690	-0.001693	1.000000	-0.000031	0.000134	-0.000021	0.715341	0.539954	0.443550	-0.658180	0.733843	0.168147	-0.234705	-0.412218	0.880335
11251		5.321796	2.023997	10.683017	0.000319	0.012140	-0.002678	1.000000	0.000004	0.000152	-0.000033	0.715519	0.539689	0.443586	-0.657948	0.734033	0.168230	-0.234815	-0.412228	0.880301
11252		5.368432	2.008189	10.678016	-0.003170	0.010737	-0.000587	1.000000	-0.000040	0.000134	-0.000007	0.715432	0.539812	0.443577	-0.658067	0.733926	0.168224	-0.234744	-0.412256	0.880307
11253		5.356753	2.022051	10.682528	-0.001243	0.012466	-0.001293	1.000000	-0.000016	0.000156	-0.000016	0.715574	0.539587	0.443620	-0.657867	0.734097	0.168260	-0.234869	-0.412246	0.880278
11254		5.353843	2.035328	10.683027	-0.003815	0.011227	-0.001686	1.000000	-0.000048	0.000140	-0.000021	0.715543	0.539627	0.443622	-0.657909	0.734060	0.168259	-0.234848	-0.412260	0.880277
11255		5.347117	2.013426	10.680418	-0.003449	0.013281	-0.001009	1.000000	-0.000043	0.000166	-0.000013	0.715547	0.539636	0.443605	-0.657912	0.734056	0.168266	-0.234829	-0.412255	0.880285
11256		5.346854	2.020610	10.687758	0.000074	0.010778	-0.003123	1.000000	0.000001	0.000135	-0.000039	0.715551	0.539594	0.443649	-0.657920	0.734023	0.168378	-0.234793	-0.412369	0.880241
11257		5.352855	2.025210	10.661853	-0.000536	0.012426	-0.002393	1.000000	-0.000007	0.000155	-0.000030	0.715583	0.539584	0.443611	-0.657906	0.734022	0.168435	-0.234736	-0.412384	0.880249
11258		5.355600	2.031346	10.652594	0.000317	0.012149	-0.002671	1.000000	0.000004	0.000152	-0.000033	0.715554	0.539605	0.443631	-0.657973	0.733933	0.168565	-0.234637	-0.412515	0.880214
11259		5.339895	2.024709	10.652861	-0.002434	0.015053	-0.003863	1.000000	-0.000030	0.000188	-0.000048	0.715618	0.539597	0.443538	-0.657928	0.733966	0.168596	-0.234568	-0.412466	0.880255
11260		5.350199	2.020135	10.686745	-0.001270	0.013393	-0.001887	1.000000	-0.000016	0.000167	-0.000024	0.715661	0.539569	0.443502	-0.657887	0.733998	0.168615	-0.234550	-0.412446	0.880270
11261		5.347600	2.039059	10.663724	0.000926	0.010506	-0.003397	1.000000	0.000012	0.000131	-0.000042	0.715544	0.539719	0.443509	-0.658085	0.733786	0.168767	-0.234354	-0.412627	0.880237
11262		5.347068	2.033055	10.672141	-0.001038	0.012689	-0.002664	1.000000	-0.000013	0.000159	-0.000033	0.715652	0.539590	0.443493	-0.657953	0.733896	0.168802	-0.234394	-0.412601	0.880239
11263		5.351597	2.013953	10.694527	-0.000917	0.013375	-0.002437	1.000000	-0.000011	0.000167	-0.000030	0.715770	0.539442	0.443480	-0.657812	0.734009	0.168862	-0.234427	-0.412593	0.880233
11264		5.349085	2.046537	10.670443	-0.000185	0.012413	-0.002939	1.000000	-0.000002	0.000155	-0.000037	0.715800	0.539402	0.443483	-0.657797	0.734000	0.168959	-0.234379	-0.412662	0.880214
11265		5.348376	2.040438	10.678965	-0.000805	0.011985	-0.003439	1.000000	-0.000010	0.000150	-0.000043	0.715962	0.539158	0.443518	-0.657585	0.734172	0.169038	-0.234480	-0.412675	0.880181
11266		5.347466	2.011899	10.666446	0.000259	0.011919	-0.005093	1.000000	0.000003	0.000149	-0.000064	0.716054	0.538997	0.443565	-0.657485	0.734224	0.169199	-0.234478	-0.412793	0.880126
11267		5.349776	2.014028	10.680469	0.003705	0.011967	-0.004369	1.000000	0.000046	0.000150	-0.000055	0.715993	0.539101	0.443537	-0.657632	0.734046	0.169400	-0.234253	-0.412973	0.880102
11268		5.344239	2.049138	10.672689	0.000878	0.012351	-0.004590	1.000000	0.000011	0.000154	-0.000057	0.716106	0.538946	0.443542	-0.657512	0.734122	0.169537	-0.234243	-0.413040	0.880073
11269		5.367839	2.061856	10.660994	0.000190	0.011479	-0.002888	1.000000	0.000002	0.000143	-0.000036	0.716076	0.538970	0.443562	-0.657572	0.734047	0.169631	-0.234169	-0.413142	0.880045
11270		5.345419	2.021793	10.674494	-0.002033	0.015288	-0.001978	1.000000	-0.000025	0.000191	-0.000025	0.716132	0.538950	0.443494	-0.657528	0.734077	0.169667	-0.234117	-0.413114	0.880072
11271		5.362001	2.037083	10.696344	0.000265	0.014004	-0.003858	1.000000	0.000003	0.000175	-0.000048	0.716267	0.538835	0.443417	-0.657390	0.734186	0.169731	-0.234093	-0.413071	0.880098
11272		5.349896	2.042884	10.678714	-0.000545	0.012446	-0.002382	1.000000	-0.000007	0.000156	-0.000030	0.716368	0.538712	0.443404	-0.657272	0.734279	0.169786	-0.234116	-0.413066	0.880094
11273		5.349687	2.041396	10.663862	-0.001520	0.012040	-0.002332	1.000000	-0.000019	0.000151	-0.000029	0.716391	0.538696	0.443385	-0.657258	0.734281	0.169830	-0.234083	-0.413084	0.880095
11274		5.348623	2.043705	10.694776	-0.002277	0.013924	-0.002428	1.000000	-0.000028	0.000174	-0.000030	0.716352	0.538808	0.443312	-0.657349	0.734191	0.169870	-0.233948	-0.413097	0.880124
11275		5.360484	2.040209	10.659382	-0.000196	0.010350	-0.004161	1.000000	-0.000002	0.000129	-0.000052	0.716384	0.538762	0.443316	-0.657333	0.734180	0.169980	-0.233895	-0.413177	0.880101
11276		5.366889	2.054009	10.655472	0.000681	0.009154	-0.003837	1.000000	0.000009	0.000114	-0.000048	0.716332	0.538788	0.443369	-0.657423	0.734066	0.170123	-0.233802	-0.413345	0.880047
11277		5.342476	2.033738	10.660712	-0.004437	0.014980	0.000280	1.000000	-0.000055	0.000187	0.000003	0.716328	0.538868	0.443278	-0.657441	0.734068	0.170047	-0.233763	-0.413239	0.880107
11278		5.341297	2.026642	10.669660	-0.001780	0.013674	-0.002149	1.000000	-0.000022	0.000171	-0.000027	0.716292	0.538927	0.443265	-0.657516	0.733982	0.170125	-0.233663	-0.413313	0.880099
11279		5.355869	2.048382	10.684311	0.000303	0.010099	-0.003883	1.000000	0.000004	0.000126	-0.000049	0.716363	0.538818	0.443282	-0.657434	0.734037	0.170205	-0.233676	-0.413357	0.880075
11280		5.353575	2.075876	10.683367	-0.003593	0.010548	-0.002458	1.000000	-0.000045	0.000132	-0.000031	0.716351	0.538819	0.443301	-0.657447	0.734022	0.170219	-0.233675	-0.413384	0.880062
11281		5.347253	2.044816	10.658515	-0.005655	0.013207	-0.000124	1.000000	-0.000071	0.000165	-0.000002	0.716318	0.538905	0.443249	-0.657489	0.734004	0.170138	-0.233658	-0.413304	0.880104
11282		5.337227	2.037652	10.671534	-0.004583	0.015222	-0.000542	1.000000	-0.000057	0.000190	-0.000007	0.716313	0.538935	0.443222	-0.657507	0.733987	0.170141	-0.233624	-0.413295	0.880117
11283		5.357802	2.063934	10.675708	-0.004044	0.011048	-0.000301	1.000000	-0.000051	0.000138	-0.000004	0.716281	0.538940	0.443266	-0.657531	0.733968	0.170129	-0.233654	-0.413322	0.880097
11284		5.348776	2.061969	10.665029	-0.003708	0.014027	-0.000216	1.000000	-0.000046	0.000175	-0.000003	0.716271	0.539018	0.443188	-0.657564	0.733947	0.170093	-0.233593	-0.413257	0.880144
11285		5.350738	2.039080	10.658634	-0.005658	0.013214	-0.000121	1.000000	-0.000071	0.000165	-0.000002	0.716283	0.538991	0.443202	-0.657531	0.733986	0.170050	-0.233649	-0.413223	0.880145
11286		5.355861	2.032525	10.679898	-0.002431	0.010969	0.000755	1.000000	-0.000030	0.000137	0.000009	0.716236	0.539040	0.443218	-0.657590	0.733933	0.170054	-0.233626	-0.413255	0.880136
11287		5.339132	2.049897	10.648399	-0.004068	0.011974	-0.000896	1.000000	-0.000051	0.000150	-0.000011	0.716188	0.539100	0.443223	-0.657652	0.733880	0.170044	-0.233602	-0.413270	0.880135
11288		5.350630	2.062452	10.657811	-0.007585	0.013562	0.001807	1.000000	-0.000095	0.000170	0.000023	0.716186	0.539130	0.443189	-0.657625	0.733939	0.169890	-0.233681	-0.413125	0.880182
11289		5.348843	2.035319	10.691462	-0.006113	0.013716	0.002037	1.000000	-0.000076	0.000171	0.000025	0.716197	0.539110	0.443195	-0.657583	0.733998	0.169797	-0.233765	-0.413046	0.880197
11290		5.348994	2.046004	10.675764	-0.004924	0.012257	-0.000619	1.000000	-0.000062	0.000153	-0.000008	0.716249	0.539035	0.443203	-0.657495	0.734091	0.169740	-0.233856	-0.412980	0.880204
11291		5.354203	2.043866	10.673969	-0.007273	0.015388	0.000064	1.000000	-0.000091	0.000192	0.000001	0.716174	0.539189	0.443137	-0.657601	0.734013	0.169665	-0.233787	-0.412917	0.880252
11292		5.333400	2.048200	10.660591	-0.004643	0.011791	0.001035	1.000000	-0.000058	0.000147	0.000013	0.716156	0.539188	0.443167	-0.657601	0.734025	0.169613	-0.233842	-0.412897	0.880247
11293		5.353136	2.032567	10.668485	-0.007112	0.014236	0.001490	1.000000	-0.000089	0.000178	0.000019	0.716027	0.539403	0.443113	-0.657771	0.733894	0.169522	-0.233757	-0.412849	0.880292
11294		5.346888	2.036923	10.663800	-0.006734	0.013295	0.001538	1.000000	-0.000084	0.000166	0.000019	0.716140	0.539260	0.443106	-0.657585	0.734091	0.169389	-0.233935	-0.412686	0.880321
11295		5.337864	2.043261	10.675286	-0.004027	0.010143	0.000307	1.000000	-0.000050	0.000127	0.000004	0.716113	0.539225	0.443191	-0.657589	0.734089	0.169383	-0.234006	-0.412735	0.880279
11296		5.349689	2.042326	10.685535	-0.005241	0.010445	0.001131	1.000000	-0.000066	0.000131	0.000014	0.716043	0.539263	0.443257	-0.657647	0.734048	0.169335	-0.234056	-0.412758	0.880255
11297		5.338064	2.032522	10.669059	-0.005024	0.012742	0.000993	1.000000	-0.000063	0.000159	0.000012	0.716040	0.539266	0.443260	-0.657635	0.734072	0.169276	-0.234100	-0.412712	0.880265
11298		5.353111	2.043982	10.661805	-0.003551	0.010812	-0.000012	1.000000	-0.000044	0.000135	-0.000000	0.715990	0.539326	0.443266	-0.657693	0.734026	0.169250	-0.234088	-0.412715	0.880267
11299		5.355479	2.043568	10.676276	-0.006519	0.013516	0.000166	1.000000	-0.000081	0.000169	0.000002	0.716004	0.539308	0.443266	-0.657658	0.734071	0.169188	-0.234144	-0.412657	0.880279
11300		5.337476	2.027676	10.670701	-0.005601	0.010472	0.001683	1.000000	-0.000070	0.000131	0.000021	0.716059	0.539186	0.443326	-0.657538	0.734200	0.169099	-0.234315	-0.412588	0.880266
11301		5.346161	2.033174	10.674333	-0.003973	0.013604	-0.001249	1.000000	-0.000050	0.000170	-0.000016	0.716137	0.539086	0.443322	-0.657429	0.734302	0.169081	-0.234383	-0.412538	0.880271
11302		5.369738	2.044120	10.663382	-0.005027	0.012749	0.000997	1.000000	-0.000063	0.000159	0.000012	0.715996	0.539268	0.443328	-0.657611	0.734146	0.169052	-0.234303	-0.412577	0.880274
11303		5.336464	2.036615	10.671555	-0.007119	0.014254	0.001499	1.000000	-0.000089	0.000178	0.000019	0.715999	0.539291	0.443295	-0.657590	0.734189	0.168943	-0.234353	-0.412469	0.880311
11304		5.353486	2.040897	10.671707	-0.006901	0.014470	0.000125	1.000000	-0.000086	0.000181	0.000002	0.715975	0.539349	0.443263	-0.657614	0.734184	0.168871	-0.234357	-0.412403	0.880341
11305		5.337905	2.032417	10.672077	-0.005666	0.013248	-0.000101	1.000000	-0.000071	0.000166	-0.000001	0.715898	0.539472	0.443238	-0.657720	0.734097	0.168838	-0.234296	-0.412397	0.880360
11306		5.349416	2.031530	10.682504	-0.004408	0.009019	-0.000970	1.000000	-0.000055	0.000113	-0.000012	0.715748	0.539569	0.443362	-0.657891	0.733932	0.168885	-0.234272	-0.412563	0.880289
11307		5.356364	2.034897	10.656760	-0.004052	0.011081	-0.000280	1.000000	-0.000051	0.000139	-0.000003	0.715786	0.539530	0.443348	-0.657829	0.734002	0.168825	-0.234332	-0.412490	0.880307
11308		5.352528	2.042431	10.680960	-0.005431	0.014626	0.000362	1.000000	-0.000068	0.000183	0.000005	0.715843	0.539471	0.443328	-0.657742	0.734095	0.168761	-0.234403	-0.412402	0.880330
11309		5.352031	2.039303	10.666704	-0.006149	0.014672	0.001461	1.000000	-0.000077	0.000183	0.000018	0.715801	0.539532	0.443321	-0.657784	0.734071	0.168699	-0.234411	-0.412365	0.880345
11310		5.338837	2.024139	10.674096	-0.007900	0.014997	-0.000422	1.000000	-0.000099	0.000187	-0.000005	0.715826	0.539541	0.443270	-0.657742	0.734132	0.168597	-0.234454	-0.412244	0.880390
11311		5.361716	2.020872	10.664677	-0.005330	0.014160	-0.001239	1.000000	-0.000067	0.000177	-0.000015	0.715804	0.539591	0.443245	-0.657776	0.734106	0.168579	-0.234425	-0.412226	0.880406
11312		5.337555	2.040788	10.666712	-0.005454	0.015559	-0.000228	1.000000	-0.000068	0.000194	-0.000003	0.715690	0.539846	0.443120	-0.657963	0.733951	0.168525	-0.234251	-0.412168	0.880480
11313		5.336070	2.032723	10.675952	-0.006789	0.015175	0.000365	1.000000	-0.000085	0.000190	0.000005	0.715582	0.540043	0.443053	-0.658112	0.733835	0.168448	-0.234159	-0.412116	0.880528
11314		5.358326	2.024373	10.689889	-0.006031	0.013285	0.000457	1.000000	-0.000075	0.000166	0.000006	0.715525	0.540112	0.443061	-0.658174	0.733791	0.168397	-0.234161	-0.412104	0.880534
11315		5.346474	2.028205	10.672570	-0.006549	0.014470	-0.000413	1.000000	-0.000082	0.000181	-0.000005	0.715526	0.540119	0.443050	-0.658163	0.733811	0.168350	-0.234186	-0.412059	0.880548
11316		5.329702	2.028564	10.695476	-0.006235	0.018385	-0.000908	1.000000	-0.000078	0.000230	-0.000011	0.715608	0.540126	0.442910	-0.658080	0.733905	0.168264	-0.234170	-0.411882	0.880635
11317		5.337575	2.024800	10.677670	-0.007152	0.015205	0.000919	1.000000	-0.000089	0.000190	0.000011	0.715583	0.540246	0.442804	-0.658119	0.733900	0.168139	-0.234138	-0.411735	0.880712
11318		5.336666	2.016917	10.686575	-0.003697	0.011077	-0.000817	1.000000	-0.000046	0.000138	-0.000010	0.715498	0.540350	0.442815	-0.658232	0.733797	0.168144	-0.234080	-0.411782	0.880706
11319		5.340244	2.035478	10.676453	-0.004797	0.012068	0.000236	1.000000	-0.000060	0.000151	0.000003	0.715499	0.540332	0.442834	-0.658214	0.733821	0.168109	-0.234126	-0.411762	0.880703
11320		5.327732	2.034688	10.682357	-0.005079	0.014629	-0.000171	1.000000	-0.000063	0.000183	-0.000002	0.715561	0.540286	0.442791	-0.658132	0.733906	0.168059	-0.234167	-0.411672	0.880734
11321		5.344450	2.025726	10.683659	-0.006173	0.013535	-0.000361	1.000000	-0.000077	0.000169	-0.000005	0.715416	0.540482	0.442785	-0.658326	0.733736	0.168040	-0.234065	-0.411716	0.880740
11322		5.349606	2.009929	10.682934	-0.005296	0.012331	-0.000038	1.000000	-0.000066	0.000154	-0.000000	0.715324	0.540615	0.442773	-0.658446	0.733638	0.168002	-0.234011	-0.411718	0.880754
11323		5.353201	2.042368	10.671859	-0.003378	0.012914	-0.002549	1.000000	-0.000042	0.000161	-0.000032	0.715275	0.540707	0.442738	-0.658533	0.733553	0.168034	-0.233915	-0.411748	0.880765
11324		5.340224	2.041734	10.677957	-0.005948	0.017003	0.001349	1.000000	-0.000074	0.000213	0.000017	0.715203	0.540897	0.442624	-0.658654	0.733459	0.167965	-0.233795	-0.411665	0.880836
11325		5.332052	2.013960	10.699026	-0.005424	0.013734	0.000977	1.000000	-0.000068	0.000172	0.000012	0.715028	0.541145	0.442602	-0.658892	0.733251	0.167941	-0.233658	-0.411710	0.880851
11326		5.333373	2.030122	10.659948	-0.003837	0.011327	-0.001635	1.000000	-0.000048	0.000142	-0.000020	0.714993	0.541162	0.442638	-0.658936	0.733203	0.167977	-0.233641	-0.411773	0.880826
11327		5.353964	2.042960	10.665494	-0.003223	0.011757	-0.001126	1.000000	-0.000040	0.000147	-0.000014	0.714991	0.541192	0.442604	-0.658943	0.733203	0.167949	-0.233626	-0.411733	0.880849
11328		5.338379	2.021475	10.666563	-0.004208	0.013437	0.000159	1.000000	-0.000053	0.000168	0.000002	0.714977	0.541233	0.442578	-0.658966	0.733189	0.167924	-0.233607	-0.411706	0.880867
11329		5.340363	2.034790	10.680267	-0.006079	0.015164	-0.000715	1.000000	-0.000076	0.000190	-0.000009	0.715029	0.541195	0.442539	-0.658893	0.733268	0.167864	-0.233652	-0.411614	0.880898
11330		5.337057	2.024356	10.660274	-0.007036	0.013832	-0.000083	1.000000	-0.000088	0.000173	-0.000001	0.715044	0.541188	0.442524	-0.658858	0.733317	0.167787	-0.233706	-0.411536	0.880920
11331		5.341190	2.025906	10.704031	-0.004786	0.011159	0.000839	1.000000	-0.000060	0.000139	0.000010	0.715014	0.541210	0.442545	-0.658878	0.733309	0.167742	-0.233738	-0.411522	0.880918
11332		5.332671	2.023802	10.693133	-0.003947	0.011807	-0.000024	1.000000	-0.000049	0.000148	-0.000000	0.715058	0.541149	0.442549	-0.658806	0.733383	0.167701	-0.233807	-0.411470	0.880924
11333		5.342341	2.034411	10.673503	-0.004670	0.011851	0.001073	1.000000	-0.000058	0.000148	0.000013	0.714934	0.541328	0.442531	-0.658971	0.733245	0.167660	-0.233725	-0.411481	0.880941
11334		5.343431	2.006486	10.690453	-0.004493	0.016011	-0.000238	1.000000	-0.000056	0.000200	-0.000003	0.714931	0.541438	0.442401	-0.659008	0.733223	0.167609	-0.233629	-0.411374	0.881016
11335		5.352777	2.030974	10.670055	-0.003831	0.012500	0.000212	1.000000	-0.000048	0.000156	0.000003	0.714911	0.541425	0.442449	-0.659021	0.733208	0.167623	-0.233652	-0.411419	0.880989
11336		5.352807	2.028040	10.655612	-0.006652	0.014055	0.001806	1.000000	-0.000083	0.000176	0.000023	0.714910	0.541417	0.442461	-0.658997	0.733248	0.167543	-0.233723	-0.411358	0.880998
11337		5.344303	2.009087	10.698688	-0.004348	0.013691	-0.000656	1.000000	-0.000054	0.000171	-0.000008	0.715038	0.541273	0.442430	-0.658822	0.733416	0.167494	-0.233825	-0.411247	0.881023
11338		5.344797	2.020352	10.683004	-0.003815	0.011577	0.000807	1.000000	-0.000048	0.000145	0.000010	0.715046	0.541229	0.442471	-0.658790	0.733450	0.167470	-0.233891	-0.411244	0.881007
11339		5.338752	2.011982	10.678995	-0.004085	0.012056	-0.000843	1.000000	-0.000051	0.000151	-0.000011	0.714914	0.541381	0.442497	-0.658968	0.733283	0.167504	-0.233792	-0.411342	0.880987
11340		5.339457	2.023374	10.663195	-0.004201	0.011368	-0.001076	1.000000	-0.000053	0.000142	-0.000013	0.714926	0.541336	0.442534	-0.658938	0.733310	0.167502	-0.233840	-0.411354	0.880969
11341		5.363172	2.020491	10.653620	-0.005417	0.012832	0.001583	1.000000	-0.000068	0.000160	0.000020	0.714912	0.541399	0.442480	-0.658950	0.733322	0.167401	-0.233850	-0.411249	0.881016
11342		5.329222	2.022035	10.683535	-0.004963	0.013270	-0.001162	1.000000	-0.000062	0.000166	-0.000015	0.714951	0.541373	0.442449	-0.658899	0.733376	0.167365	-0.233874	-0.411187	0.881038
11343		5.335519	2.011822	10.659320	-0.003840	0.011352	-0.001621	1.000000	-0.000048	0.000142	-0.000020	0.714995	0.541285	0.442485	-0.658827	0.733441	0.167369	-0.233942	-0.411188	0.881019
11344		5.347387	2.039067	10.667745	-0.002253	0.012190	-0.001145	1.000000	-0.000028	0.000152	-0.000014	0.715015	0.541224	0.442528	-0.658798	0.733454	0.167420	-0.233962	-0.411244	0.880988
11345		5.333403	2.006365	10.698839	-0.003725	0.012043	-0.001386	1.000000	-0.000047	0.000151	-0.000017	0.714908	0.541365	0.442528	-0.658950	0.733312	0.167447	-0.233861	-0.411313	0.880983
11346		5.349682	2.036988	10.667596	-0.003722	0.013205	0.000456	1.000000	-0.000047	0.000165	0.000006	0.714904	0.541368	0.442530	-0.658953	0.733311	0.167439	-0.233866	-0.411309	0.880983
11347		5.338807	2.024970	10.703512	-0.004088	0.012067	-0.000837	1.000000	-0.000051	0.000151	-0.000010	0.714960	0.541295	0.442529	-0.658869	0.733393	0.167409	-0.233930	-0.411259	0.880989
11348		5.351961	2.034304	10.667577	-0.004698	0.012800	0.000493	1.000000	-0.000059	0.000160	0.000006	0.714863	0.541434	0.442515	-0.658998	0.733284	0.167381	-0.233863	-0.411271	0.881002
11349		5.339301	2.019607	10.674391	-0.005674	0.012394	0.000529	1.000000	-0.000071	0.000155	0.000007	0.714779	0.541566	0.442489	-0.659104	0.733204	0.167314	-0.233823	-0.411239	0.881027
11350		5.332990	2.011013	10.670551	-0.003857	0.013451	-0.000365	1.000000	-0.000048	0.000168	-0.000005	0.714790	0.541557	0.442483	-0.659091	0.733216	0.167314	-0.233825	-0.411231	0.881031
11351		5.346765	2.031218	10.686319	-0.005595	0.014946	-0.000416	1.000000	-0.000070	0.000187	-0.000005	0.714735	0.541687	0.442413	-0.659181	0.733143	0.167276	-0.233741	-0.411188	0.881073
11352		5.344495	2.034932	10.664906	-0.004418	0.010237	0.000896	1.000000	-0.000055	0.000128	0.000011	0.714713	0.541674	0.442465	-0.659180	0.733154	0.167233	-0.233810	-0.411188	0.881055
11353		5.328229	2.008234	10.688988	-0.003727	0.012056	-0.001378	1.000000	-0.000047	0.000151	-0.000017	0.714674	0.541716	0.442475	-0.659234	0.733100	0.167253	-0.233775	-0.411227	0.881046
11354		5.355274	2.027034	10.684101	-0.003595	0.010656	-0.002394	1.000000	-0.000045	0.000133	-0.000030	0.714645	0.541725	0.442512	-0.659270	0.733060	0.167288	-0.233764	-0.411286	0.881021
11355		5.340273	2.019392	10.683801	-0.003843	0.012529	0.000230	1.000000	-0.000048	0.000157	0.000003	0.714608	0.541757	0.442533	-0.659314	0.733019	0.167293	-0.233753	-0.411318	0.881009
11356		5.334191	2.024431	10.678971	-0.006440	0.014306	0.000448	1.000000	-0.000081	0.000179	0.000006	0.714612	0.541769	0.442511	-0.659299	0.733048	0.167227	-0.233783	-0.411249	0.881033
11357		5.336676	2.037723	10.692464	-0.003197	0.009940	0.000083	1.000000	-0.000040	0.000124	0.000001	0.714514	0.541816	0.442612	-0.659409	0.732938	0.167278	-0.233774	-0.411385	0.880972
11358		5.345146	2.016070	10.698161	-0.003694	0.010202	-0.000194	1.000000	-0.000046	0.000128	-0.000002	0.714513	0.541769	0.442670	-0.659389	0.732956	0.167278	-0.233832	-0.411414	0.880943
11359		5.345978	2.013966	10.683239	-0.002355	0.010590	-0.000774	1.000000	-0.000029	0.000132	-0.000010	0.714477	0.541780	0.442715	-0.659430	0.732911	0.167312	-0.233824	-0.411480	0.880914
11360		5.347074	2.039300	10.666432	-0.004226	0.013487	0.000192	1.000000	-0.000053	0.000169	0.000002	0.714395	0.541881	0.442725	-0.659541	0.732809	0.167322	-0.233764	-0.411529	0.880908
11361		5.336641	2.018130	10.680208	-0.005815	0.013812	0.001555	1.000000	-0.000073	0.000173	0.000019	0.714434	0.541863	0.442684	-0.659478	0.732888	0.167227	-0.233823	-0.411413	0.880946
11362		5.348570	2.022242	10.667852	-0.003367	0.013208	-0.000074	1.000000	-0.000042	0.000165	-0.000001	0.714366	0.541955	0.442680	-0.659575	0.732797	0.167243	-0.233756	-0.411453	0.880945
11363		5.338982	2.029085	10.679333	-0.003847	0.012540	0.000238	1.000000	-0.000048	0.000157	0.000003	0.714428	0.541866	0.442690	-0.659481	0.732887	0.167217	-0.233833	-0.411410	0.880945
11364		5.330114	2.027261	10.668574	-0.003996	0.013714	-0.001176	1.000000	-0.000050	0.000171	-0.000015	0.714539	0.541747	0.442656	-0.659339	0.733019	0.167199	-0.233895	-0.411331	0.880965
11365		5.348478	2.007383	10.700068	-0.003234	0.011811	-0.001090	1.000000	-0.000040	0.000148	-0.000014	0.714583	0.541669	0.442680	-0.659273	0.733075	0.167213	-0.233944	-0.411335	0.880951
11366		5.337783	2.026056	10.681163	-0.003235	0.011813	-0.001089	1.000000	-0.000040	0.000148	-0.000014	0.714619	0.541631	0.442670	-0.659227	0.733119	0.167203	-0.233967	-0.411306	0.880958
11367		5.350143	2.044017	10.667741	-0.006447	0.014324	0.000456	1.000000	-0.000081	0.000179	0.000006	0.714488	0.541825	0.442643	-0.659402	0.732970	0.167163	-0.233871	-0.411316	0.880979
11368		5.327788	2.015988	10.679429	-0.004842	0.013071	-0.000315	1.000000	-0.000061	0.000163	-0.000004	0.714493	0.541806	0.442658	-0.659389	0.732984	0.167157	-0.233895	-0.411316	0.880972
11369		5.347252	2.000955	10.687688	-0.004113	0.013031	-0.001407	1.000000	-0.000051	0.000163	-0.000018	0.714496	0.541818	0.442639	-0.659392	0.732981	0.167157	-0.233877	-0.411306	0.880982
11370		5.351919	2.024861	10.654582	-0.004097	0.012101	-0.000817	1.000000	-0.000051	0.000151	-0.000010	0.714497	0.541829	0.442622	-0.659389	0.732988	0.167136	-0.233878	-0.411278	0.880994
11371		5.319944	2.019947	10.691216	-0.006598	0.015505	-0.000954	1.000000	-0.000082	0.000194	-0.000012	0.714598	0.541747	0.442560	-0.659256	0.733124	0.167063	-0.233945	-0.411144	0.881039
11372		5.340759	2.023280	10.675325	-0.005689	0.012428	0.000545	1.000000	-0.000071	0.000155	0.000007	0.714588	0.541757	0.442564	-0.659251	0.733143	0.167001	-0.233989	-0.411098	0.881049
11373		5.348705	2.014615	10.680578	-0.006452	0.014336	0.000462	1.000000	-0.000081	0.000179	0.000006	0.714618	0.541800	0.442464	-0.659216	0.733201	0.166883	-0.233998	-0.410937	0.881122
11374		5.350269	2.013835	10.695476	-0.005096	0.013793	0.000475	1.000000	-0.000064	0.000172	0.000006	0.714539	0.541934	0.442426	-0.659327	0.733110	0.166848	-0.233926	-0.410923	0.881148
11375		5.339042	2.018193	10.677839	-0.004464	0.012130	-0.000266	1.000000	-0.000056	0.000152	-0.000003	0.714484	0.542007	0.442426	-0.659396	0.733052	0.166826	-0.233900	-0.410928	0.881152
11376		5.328218	2.036275	10.659151	-0.005707	0.013367	-0.000039	1.000000	-0.000071	0.000167	-0.000000	0.714518	0.541998	0.442382	-0.659347	0.733113	0.166753	-0.233937	-0.410832	0.881187
11377		5.341143	2.014709	10.678147	-0.005943	0.013148	0.001333	1.000000	-0.000074	0.000164	0.000017	0.714494	0.542055	0.442352	-0.659368	0.733113	0.166670	-0.233950	-0.410757	0.881219
11378		5.336872	1.985843	10.682242	-0.003262	0.013925	0.000182	1.000000	-0.000041	0.000174	0.000002	0.714562	0.541972	0.442343	-0.659280	0.733191	0.166675	-0.233988	-0.410728	0.881222
11379		5.355197	2.019027	10.680362	-0.002850	0.009718	-0.002879	1.000000	-0.000036	0.000121	-0.000036	0.714605	0.541857	0.442415	-0.659209	0.733244	0.166722	-0.234059	-0.410785	0.881177
11380		5.351300	2.030207	10.651606	-0.002476	0.009926	-0.000991	1.000000	-0.000031	0.000124	-0.000012	0.714590	0.541827	0.442476	-0.659215	0.733232	0.166751	-0.234088	-0.410845	0.881141
11381		5.346812	2.023950	10.676742	-0.005223	0.014274	0.002089	1.000000	-0.000065	0.000178	0.000026	0.714505	0.541940	0.442474	-0.659320	0.733148	0.166710	-0.234052	-0.410847	0.881149
11382		5.339900	2.001549	10.674040	-0.004499	0.014007	-0.001434	1.000000	-0.000056	0.000175	-0.000018	0.714512	0.541993	0.442398	-0.659330	0.733145	0.166683	-0.234000	-0.410784	0.881193
11383		5.339574	2.021487	10.680830	-0.004339	0.011899	0.000566	1.000000	-0.000054	0.000149	0.000007	0.714524	0.541981	0.442394	-0.659303	0.733179	0.166636	-0.234040	-0.410737	0.881204
11384		5.352016	2.025719	10.668379	-0.005078	0.011714	-0.000775	1.000000	-0.000063	0.000146	-0.000010	0.714525	0.541955	0.442424	-0.659287	0.733198	0.166618	-0.234085	-0.410737	0.881192
11385		5.342415	2.018452	10.680711	-0.005062	0.010781	-0.000187	1.000000	-0.000063	0.000135	-0.000002	0.714378	0.542134	0.442441	-0.659473	0.733036	0.166596	-0.234008	-0.410790	0.881188
11386		5.336872	2.023472	10.675651	-0.005697	0.012449	0.000556	1.000000	-0.000071	0.000156	0.000007	0.714350	0.542172	0.442440	-0.659496	0.733027	0.166542	-0.234026	-0.410758	0.881198
11387		5.341372	2.030176	10.696303	-0.004868	0.014036	-0.000883	1.000000	-0.000061	0.000175	-0.000011	0.714314	0.542246	0.442408	-0.659555	0.732976	0.166534	-0.233972	-0.410750	0.881216
11388		5.353424	1.998176	10.663967	-0.005488	0.014771	0.000447	1.000000	-0.000069	0.000185	0.000006	0.714238	0.542371	0.442377	-0.659659	0.732889	0.166501	-0.233908	-0.410740	0.881238
11389		5.340494	2.033451	10.689984	-0.005209	0.011965	-0.001595	1.000000	-0.000065	0.000150	-0.000020	0.714220	0.542414	0.442354	-0.659683	0.732877	0.166464	-0.233899	-0.410705	0.881256
11390		5.351950	1.996432	10.680563	-0.003719	0.011403	0.001676	1.000000	-0.000046	0.000143	0.000021	0.714233	0.542346	0.442416	-0.659639	0.732920	0.166448	-0.233983	-0.410717	0.881228
11391		5.342604	2.003329	10.691829	-0.002877	0.011830	-0.001609	1.000000	-0.000036	0.000148	-0.000020	0.714222	0.542350	0.442429	-0.659658	0.732895	0.166483	-0.233962	-0.410758	0.881215
11392		5.335208	2.043114	10.677798	-0.003611	0.011871	-0.000517	1.000000	-0.000045	0.000148	-0.000006	0.714277	0.542246	0.442467	-0.659572	0.732970	0.166493	-0.234035	-0.410761	0.881194
11393		5.331540	2.014255	10.681540	-0.005671	0.010590	0.001733	1.000000	-0.000071	0.000132	0.000022	0.714143	0.542387	0.442512	-0.659722	0.732848	0.166433	-0.234023	-0.410792	0.881183
11394		5.349357	2.019136	10.681875	-0.003865	0.012586	0.000269	1.000000	-0.000048	0.000157	0.000003	0.714105	0.542433	0.442516	-0.659770	0.732807	0.166426	-0.234004	-0.410804	0.881182
11395		5.343281	2.010654	10.677869	-0.004841	0.012179	0.000297	1.000000	-0.000061	0.000152	0.000004	0.714059	0.542472	0.442543	-0.659819	0.732767	0.166410	-0.234008	-0.410825	0.881172
11396		5.345139	2.009886	10.692605	-0.006694	0.012991	0.000004	1.000000	-0.000084	0.000162	0.000000	0.714108	0.542424	0.442523	-0.659737	0.732860	0.166325	-0.234089	-0.410722	0.881198
11397		5.331691	2.007011	10.668830	-0.003456	0.009538	-0.000950	1.000000	-0.000043	0.000119	-0.000012	0.714038	0.542459	0.442592	-0.659813	0.732786	0.166349	-0.234088	-0.410808	0.881158
11398		5.329269	2.019681	10.669428	-0.004827	0.011248	0.000885	1.000000	-0.000060	0.000141	0.000011	0.714021	0.542460	0.442619	-0.659814	0.732795	0.166304	-0.234136	-0.410790	0.881154
11399		5.352323	2.025390	10.682544	-0.004955	0.011492	0.000061	1.000000	-0.000062	0.000144	0.000001	0.713960	0.542533	0.442629	-0.659884	0.732740	0.166268	-0.234126	-0.410792	0.881155
11400		5.352622	2.009052	10.668960	-0.004235	0.012615	0.000820	1.000000	-0.000053	0.000158	0.000010	0.713866	0.542644	0.442643	-0.660002	0.732636	0.166259	-0.234077	-0.410832	0.881150
11401		5.336707	2.023699	10.689894	-0.002766	0.012536	-0.001359	1.000000	-0.000035	0.000157	-0.000017	0.713829	0.542706	0.442627	-0.660066	0.732572	0.166288	-0.234011	-0.410864	0.881152
11402		5.339684	2.015114	10.682158	-0.003982	0.011905	0.000037	1.000000	-0.000050	0.000149	0.000000	0.713806	0.542741	0.442622	-0.660094	0.732552	0.166265	-0.234005	-0.410853	0.881159
11403		5.352123	2.019380	10.669848	-0.004605	0.012639	0.001367	1.000000	-0.000058	0.000158	0.000017	0.713670	0.542937	0.442600	-0.660274	0.732398	0.166225	-0.233910	-0.410867	0.881178
11404		5.345977	2.010902	10.665873	-0.003997	0.012845	-0.000546	1.000000	-0.000050	0.000161	-0.000007	0.713628	0.543012	0.442576	-0.660337	0.732344	0.166217	-0.233860	-0.410866	0.881192
11405		5.338867	2.010842	10.684161	-0.005694	0.011541	0.001154	1.000000	-0.000071	0.000144	0.000014	0.713506	0.543144	0.442611	-0.660478	0.732225	0.166177	-0.233833	-0.410903	0.881182
11406		5.350288	2.010195	10.694885	-0.001859	0.009224	-0.002298	1.000000	-0.000023	0.000115	-0.000029	0.713598	0.542985	0.442656	-0.660347	0.732335	0.166214	-0.233921	-0.410917	0.881152
11407		5.349709	2.042468	10.671102	-0.003233	0.010935	-0.000464	1.000000	-0.000040	0.000137	-0.000006	0.713667	0.542879	0.442677	-0.660244	0.732430	0.166201	-0.234003	-0.410887	0.881144
11408		5.354426	1.999585	10.672260	-0.005357	0.013399	-0.000558	1.000000	-0.000067	0.000167	-0.000007	0.713715	0.542836	0.442651	-0.660176	0.732503	0.166154	-0.234049	-0.410814	0.881166
11409		5.341128	2.020995	10.699220	-0.005343	0.012463	0.000027	1.000000	-0.000067	0.000156	0.000000	0.713683	0.542877	0.442652	-0.660209	0.732482	0.166117	-0.234054	-0.410798	0.881172
11410		5.339454	2.024885	10.677764	-0.005200	0.011059	-0.000997	1.000000	-0.000065	0.000138	-0.000012	0.713608	0.542963	0.442668	-0.660299	0.732405	0.166096	-0.234028	-0.410821	0.881168
11411		5.347690	2.002924	10.683659	-0.004084	0.010287	0.000388	1.000000	-0.000051	0.000129	0.000005	0.713597	0.542911	0.442749	-0.660284	0.732419	0.166096	-0.234102	-0.410866	0.881127
11412		5.336722	2.016275	10.687609	-0.002679	0.006702	-0.000277	1.000000	-0.000033	0.000084	-0.000003	0.713477	0.542971	0.442869	-0.660411	0.732298	0.166124	-0.234111	-0.411001	0.881062
11413		5.361305	2.000257	10.678995	-0.003221	0.010004	0.000125	1.000000	-0.000040	0.000125	0.000002	0.713445	0.542955	0.442940	-0.660433	0.732275	0.166140	-0.234147	-0.411064	0.881023
11414		5.336105	2.040324	10.672300	-0.006946	0.012794	0.001384	1.000000	-0.000087	0.000160	0.000017	0.713401	0.543032	0.442917	-0.660473	0.732262	0.166036	-0.234168	-0.410984	0.881055
11415		5.336872	1.998173	10.689957	-0.004482	0.012187	-0.000232	1.000000	-0.000056	0.000152	-0.000003	0.713410	0.543032	0.442901	-0.660455	0.732286	0.165997	-0.234189	-0.410941	0.881069
11416		5.335527	2.015772	10.667584	-0.005589	0.012248	0.001402	1.000000	-0.000070	0.000153	0.000018	0.713338	0.543153	0.442870	-0.660540	0.732231	0.165906	-0.234170	-0.410880	0.881102
11417		5.346029	2.000633	10.679720	-0.005604	0.013188	0.000819	1.000000	-0.000070	0.000165	0.000010	0.713352	0.543138	0.442866	-0.660508	0.732272	0.165852	-0.234218	-0.410828	0.881114
11418		5.345130	2.006503	10.687723	-0.004881	0.014088	-0.000852	1.000000	-0.000061	0.000176	-0.000011	0.713392	0.543107	0.442839	-0.660459	0.732320	0.165835	-0.234234	-0.410783	0.881131
11419		5.332560	2.005554	10.693344	-0.005591	0.012253	0.001404	1.000000	-0.000070	0.000153	0.000018	0.713397	0.543056	0.442894	-0.660423	0.732361	0.165798	-0.234321	-0.410777	0.881111
11420		5.341007	2.011163	10.697563	-0.003266	0.012829	-0.001619	1.000000	-0.000041	0.000160	-0.000020	0.713324	0.543129	0.442922	-0.660529	0.732250	0.165864	-0.234244	-0.410878	0.881084
11421		5.351026	2.021942	10.678526	-0.006693	0.012092	0.000604	1.000000	-0.000084	0.000151	0.000008	0.713299	0.543143	0.442946	-0.660537	0.732258	0.165797	-0.234299	-0.410845	0.881085
11422		5.342882	1.993850	10.698909	-0.005990	0.014155	0.000785	1.000000	-0.000075	0.000177	0.000010	0.713238	0.543230	0.442936	-0.660611	0.732201	0.165755	-0.234275	-0.410832	0.881097
11423		5.347959	2.017613	10.666232	-0.003511	0.012608	-0.000247	1.000000	-0.000044	0.000158	-0.000003	0.713328	0.543105	0.442945	-0.660487	0.732312	0.165757	-0.234351	-0.410799	0.881092
11424		5.346778	1.996436	10.675834	-0.003003	0.011405	0.000617	1.000000	-0.000038	0.000143	0.000008	0.713328	0.543074	0.442983	-0.660476	0.732320	0.165766	-0.234382	-0.410825	0.881072
11425		5.350817	2.015344	10.666099	-0.003734	0.011223	-0.000728	1.000000	-0.000047	0.000140	-0.000009	0.713348	0.543018	0.443019	-0.660437	0.732354	0.165774	-0.234429	-0.410841	0.881052
11426		5.336066	2.021609	10.664597	-0.002662	0.013267	-0.001090	1.000000	-0.000033	0.000166	-0.000014	0.713384	0.542978	0.443011	-0.660402	0.732377	0.165809	-0.234420	-0.410851	0.881050
11427		5.339841	2.001426	10.687026	-0.003365	0.011206	-0.001271	1.000000	-0.000042	0.000140	-0.000016	0.713361	0.542992	0.443031	-0.660431	0.732346	0.165830	-0.234408	-0.410888	0.881036
11428		5.341426	2.026840	10.670469	-0.003994	0.011941	0.000059	1.000000	-0.000050	0.000149	0.000001	0.713385	0.542948	0.443045	-0.660390	0.732386	0.165819	-0.234449	-0.410876	0.881031
11429		5.341950	2.010460	10.656838	-0.005710	0.011573	0.001169	1.000000	-0.000071	0.000145	0.000015	0.713364	0.542965	0.443059	-0.660396	0.732396	0.165752	-0.234497	-0.410836	0.881037
11430		5.352664	2.009156	10.668111	-0.005750	0.014394	-0.000577	1.000000	-0.000072	0.000180	-0.000007	0.713329	0.543062	0.442996	-0.660453	0.732354	0.165706	-0.234442	-0.410781	0.881077
11431		5.346907	1.988768	10.694452	-0.004998	0.013417	-0.001081	1.000000	-0.000062	0.000168	-0.000014	0.713401	0.542982	0.442978	-0.660357	0.732446	0.165682	-0.234495	-0.410722	0.881090
11432		5.322174	2.020371	10.665817	-0.006506	0.015378	-0.000069	1.000000	-0.000081	0.000192	-0.000001	0.713472	0.542966	0.442883	-0.660270	0.732545	0.165592	-0.234521	-0.410568	0.881155
11433		5.356454	1.993468	10.713840	-0.003724	0.010294	-0.000140	1.000000	-0.000047	0.000129	-0.000002	0.713470	0.542918	0.442945	-0.660252	0.732561	0.165595	-0.234580	-0.410603	0.881123
11434		5.359830	2.010743	10.674693	-0.001131	0.009439	-0.000928	1.000000	-0.000014	0.000118	-0.000012	0.713486	0.542838	0.443017	-0.660222	0.732573	0.165661	-0.234615	-0.410687	0.881075
11435		5.350152	2.017659	10.686009	-0.005643	0.015098	-0.000329	1.000000	-0.000071	0.000189	-0.000004	0.713526	0.542828	0.442965	-0.660176	0.732624	0.165621	-0.234623	-0.410610	0.881108
11436		5.346510	2.016561	10.688039	-0.003258	0.011913	-0.001020	1.000000	-0.000041	0.000149	-0.000013	0.713459	0.542929	0.442949	-0.660275	0.732532	0.165632	-0.234548	-0.410640	0.881114
11437		5.349131	1.993746	10.681414	-0.006483	0.013505	0.001098	1.000000	-0.000081	0.000169	0.000014	0.713444	0.542943	0.442956	-0.660277	0.732544	0.165572	-0.234589	-0.410600	0.881122
11438		5.348370	1.999513	10.689379	-0.004617	0.012468	-0.001036	1.000000	-0.000058	0.000156	-0.000013	0.713440	0.542941	0.442965	-0.660279	0.732543	0.165570	-0.234596	-0.410604	0.881118
11439		5.368027	2.023717	10.665921	-0.005099	0.011795	-0.000735	1.000000	-0.000064	0.000147	-0.000009	0.713497	0.542878	0.442951	-0.660194	0.732630	0.165521	-0.234662	-0.410532	0.881134
11440		5.337098	2.009979	10.679396	-0.005854	0.012777	-0.000229	1.000000	-0.000073	0.000160	-0.000003	0.713571	0.542797	0.442931	-0.660084	0.732744	0.165455	-0.234746	-0.410436	0.881157
11441		5.349355	2.013927	10.667534	-0.006005	0.014187	0.000802	1.000000	-0.000075	0.000177	0.000010	0.713609	0.542769	0.442905	-0.660025	0.732811	0.165391	-0.234797	-0.410353	0.881182
11442		5.347847	2.005777	10.676647	-0.005525	0.014865	0.000503	1.000000	-0.000069	0.000186	0.000006	0.713590	0.542848	0.442837	-0.660059	0.732793	0.165334	-0.234757	-0.410280	0.881226
11443		5.350283	1.995808	10.669557	-0.009839	0.015355	0.002395	1.000000	-0.000123	0.000192	0.000030	0.713543	0.542967	0.442768	-0.660102	0.732794	0.165162	-0.234780	-0.410122	0.881294
11444		5.335649	2.002255	10.697972	-0.007269	0.016384	0.000450	1.000000	-0.000091	0.000205	0.000006	0.713535	0.543060	0.442666	-0.660124	0.732795	0.165068	-0.234742	-0.409996	0.881362
11445		5.342514	2.019098	10.672786	-0.006760	0.015900	-0.001702	1.000000	-0.000084	0.000199	-0.000021	0.713485	0.543197	0.442579	-0.660211	0.732726	0.165025	-0.234648	-0.409939	0.881414
11446		5.335563	2.009761	10.669344	-0.008990	0.016019	0.001557	1.000000	-0.000112	0.000200	0.000019	0.713486	0.543265	0.442493	-0.660201	0.732769	0.164877	-0.234673	-0.409771	0.881485
11447		5.352321	1.987969	10.701926	-0.008138	0.016678	0.000717	1.000000	-0.000102	0.000208	0.000009	0.713519	0.543315	0.442380	-0.660165	0.732829	0.164754	-0.234675	-0.409599	0.881565
11448		5.327400	1.993692	10.704603	-0.006018	0.015870	-0.002782	1.000000	-0.000075	0.000198	-0.000035	0.713593	0.543276	0.442308	-0.660088	0.732902	0.164739	-0.234669	-0.409518	0.881604
11449		5.341605	2.004721	10.699187	-0.008744	0.016255	0.000195	1.000000	-0.000109	0.000203	0.000002	0.713611	0.543305	0.442243	-0.660058	0.732953	0.164633	-0.234698	-0.409390	0.881656
11450		5.341237	2.001215	10.685494	-0.008757	0.017202	-0.000383	1.000000	-0.000109	0.000215	-0.000005	0.713569	0.543469	0.442109	-0.660130	0.732915	0.164511	-0.234622	-0.409239	0.881746
11451		5.324224	1.990465	10.656366	-0.007618	0.015260	-0.000850	1.000000	-0.000095	0.000191	-0.000011	0.713522	0.543581	0.442047	-0.660196	0.732872	0.164438	-0.234578	-0.409168	0.881790
11452		5.334717	2.002823	10.667121	-0.005996	0.013994	-0.001616	1.000000	-0.000075	0.000175	-0.000020	0.713581	0.543536	0.442007	-0.660121	0.732948	0.164400	-0.234611	-0.409091	0.881818
11453		5.328990	1.996160	10.692552	-0.004791	0.014852	-0.000563	1.000000	-0.000060	0.000186	-0.000007	0.713538	0.543641	0.441949	-0.660197	0.732883	0.164386	-0.234530	-0.409068	0.881850
11454		5.317091	1.973852	10.676637	-0.001678	0.013509	-0.003498	1.000000	-0.000021	0.000169	-0.000044	0.713664	0.543512	0.441904	-0.660062	0.732989	0.164456	-0.234527	-0.409050	0.881859
11455		5.322346	2.023189	10.694545	-0.001512	0.011156	-0.003951	1.000000	-0.000019	0.000139	-0.000049	0.713689	0.543473	0.441911	-0.660049	0.732981	0.164544	-0.234487	-0.409116	0.881839
11456		5.330615	2.016053	10.699522	-0.001907	0.011394	-0.000973	1.000000	-0.000024	0.000142	-0.000012	0.713681	0.543485	0.441909	-0.660069	0.732955	0.164579	-0.234453	-0.409147	0.881833
11457		5.354054	1.986546	10.692520	-0.002544	0.012129	0.000357	1.000000	-0.000032	0.000152	0.000004	0.713646	0.543506	0.441940	-0.660115	0.732905	0.164615	-0.234431	-0.409208	0.881811
11458		5.321297	1.993970	10.697749	-0.002138	0.010949	-0.002041	1.000000	-0.000027	0.000137	-0.000026	0.713616	0.543537	0.441951	-0.660165	0.732849	0.164664	-0.234382	-0.409267	0.881797
11459		5.322627	2.020046	10.681454	-0.002208	0.014946	-0.001919	1.000000	-0.000028	0.000187	-0.000024	0.713649	0.543564	0.441864	-0.660161	0.732844	0.164701	-0.234292	-0.409240	0.881833
11460		5.331009	2.000639	10.716773	-0.002270	0.010474	0.000150	1.000000	-0.000028	0.000131	0.000002	0.713652	0.543511	0.441923	-0.660145	0.732851	0.164738	-0.234327	-0.409299	0.881797
11461		5.346279	2.011487	10.681007	-0.000238	0.008024	-0.003014	1.000000	-0.000003	0.000100	-0.000038	0.713801	0.543248	0.442007	-0.659940	0.733014	0.164833	-0.234452	-0.409356	0.881737
11462		5.349974	2.003586	10.672960	-0.003270	0.011956	-0.000991	1.000000	-0.000041	0.000149	-0.000012	0.713845	0.543185	0.442013	-0.659882	0.733063	0.164847	-0.234480	-0.409351	0.881731
11463		5.332857	1.990638	10.695542	-0.003547	0.013617	-0.000780	1.000000	-0.000044	0.000170	-0.000010	0.713855	0.543214	0.441961	-0.659886	0.733061	0.164842	-0.234440	-0.409317	0.881758
11464		5.340573	1.994950	10.670605	-0.002019	0.010708	-0.001213	1.000000	-0.000025	0.000134	-0.000015	0.713879	0.543166	0.441982	-0.659856	0.733078	0.164881	-0.234450	-0.409349	0.881741
11465		5.326554	2.015090	10.667920	-0.003753	0.011282	-0.000692	1.000000	-0.000047	0.000141	-0.000009	0.713859	0.543201	0.441970	-0.659883	0.733058	0.164865	-0.234435	-0.409339	0.881749
11466		5.333297	2.015390	10.695443	-0.004392	0.012018	0.000638	1.000000	-0.000055	0.000150	0.000008	0.713752	0.543314	0.442004	-0.660013	0.732941	0.164861	-0.234392	-0.409399	0.881733
11467		5.350411	1.993240	10.697971	-0.002394	0.010730	-0.000669	1.000000	-0.000030	0.000134	-0.000008	0.713636	0.543444	0.442032	-0.660171	0.732790	0.164901	-0.234302	-0.409496	0.881712
11468		5.331382	2.012686	10.682441	-0.003272	0.011964	-0.000986	1.000000	-0.000041	0.000150	-0.000012	0.713666	0.543388	0.442054	-0.660131	0.732821	0.164928	-0.234326	-0.409516	0.881696
11469		5.350245	1.983790	10.692160	-0.005777	0.014468	-0.000537	1.000000	-0.000072	0.000181	-0.000007	0.713663	0.543436	0.441998	-0.660142	0.732821	0.164882	-0.234302	-0.409452	0.881732
11470		5.323996	2.010288	10.686576	-0.004418	0.013915	-0.000514	1.000000	-0.000055	0.000174	-0.000006	0.713675	0.543446	0.441966	-0.660134	0.732830	0.164873	-0.234287	-0.409422	0.881750
11471		5.336448	2.014946	10.674738	-0.003047	0.012416	0.000087	1.000000	-0.000038	0.000155	0.000001	0.713656	0.543456	0.441985	-0.660160	0.732801	0.164899	-0.234272	-0.409462	0.881736
11472		5.362453	1.992459	10.673940	-0.003274	0.011970	-0.000982	1.000000	-0.000041	0.000150	-0.000012	0.713687	0.543398	0.442006	-0.660119	0.732832	0.164926	-0.234296	-0.409482	0.881720
11473		5.338870	2.012951	10.674935	-0.003779	0.013186	-0.001841	1.000000	-0.000047	0.000165	-0.000023	0.713685	0.543415	0.441988	-0.660133	0.732813	0.164951	-0.234258	-0.409494	0.881724
11474		5.321895	2.013394	10.696733	-0.005770	0.013531	0.000044	1.000000	-0.000072	0.000169	0.000001	0.713696	0.543402	0.441986	-0.660110	0.732842	0.164915	-0.234291	-0.409459	0.881732
11475		5.336128	1.997588	10.692757	-0.003179	0.013618	-0.001310	1.000000	-0.000040	0.000170	-0.000016	0.713762	0.543367	0.441922	-0.660044	0.732902	0.164915	-0.234276	-0.409398	0.881764
11476		5.333207	2.024247	10.693018	-0.005249	0.013050	-0.002107	1.000000	-0.000066	0.000163	-0.000026	0.713762	0.543379	0.441908	-0.660048	0.732899	0.164912	-0.234264	-0.409389	0.881772
11477		5.324218	1.994733	10.683766	-0.004775	0.012052	0.001187	1.000000	-0.000060	0.000151	0.000015	0.713697	0.543439	0.441939	-0.660120	0.732839	0.164892	-0.234261	-0.409415	0.881760
11478		5.328739	2.001513	10.704384	-0.003374	0.010335	-0.000647	1.000000	-0.000042	0.000129	-0.000008	0.713660	0.543447	0.441989	-0.660157	0.732800	0.164913	-0.234268	-0.409474	0.881731
11479		5.330081	1.999821	10.689611	-0.002143	0.010977	-0.002023	1.000000	-0.000027	0.000137	-0.000025	0.713624	0.543453	0.442040	-0.660208	0.732737	0.164992	-0.234234	-0.409581	0.881691
11480		5.332366	2.014067	10.703167	-0.001157	0.010441	-0.001457	1.000000	-0.000014	0.000131	-0.000018	0.713669	0.543363	0.442078	-0.660152	0.732772	0.165059	-0.234256	-0.409636	0.881659
