// Start Time: Unknown
// Update Rate: 40.0Hz
// Filter Profile: human (46.1)
// Firmware Version: 4.3.4
PacketCounter	SampleTimeFine	Acc_X	Acc_Y	Acc_Z	Gyr_X	Gyr_Y	Gyr_Z	OriInc_q0	OriInc_q1	OriInc_q2	OriInc_q3	Mat[1][1]	Mat[2][1]	Mat[3][1]	Mat[1][2]	Mat[2][2]	Mat[3][2]	Mat[1][3]	Mat[2][3]	Mat[3][3]
10839		9.705630	-1.798948	4.960401	0.172482	0.196410	-0.051999	0.999994	0.002156	0.002455	-0.000650	-0.096070	-0.466003	0.879552	0.857747	-0.487083	-0.164378	0.505015	0.738641	0.446507
10840		9.675720	-2.947418	4.286720	-0.157813	0.235798	0.167884	0.999992	-0.001973	0.002947	0.002099	-0.095458	-0.472390	0.876205	0.856151	-0.488019	-0.169833	0.507832	0.733952	0.451023
10841		9.691814	-4.122394	3.619914	0.183460	0.224425	0.311120	0.999986	0.002293	0.002805	0.003889	-0.091579	-0.480329	0.872294	0.859210	-0.480906	-0.174606	0.503360	0.733494	0.456745
10842		10.003956	-3.977015	4.082933	0.538784	0.227060	0.419860	0.999960	0.006735	0.002838	0.005248	-0.085004	-0.489921	0.867613	0.866939	-0.465564	-0.177955	0.491113	0.737040	0.464306
10843		9.819015	-4.687813	3.784015	0.628431	0.142927	0.681381	0.999931	0.007855	0.001787	0.008517	-0.071286	-0.500682	0.862691	0.875886	-0.445221	-0.186018	0.477223	0.742358	0.470278
10844		9.054505	-4.771998	2.977215	0.704525	-0.120093	1.003667	0.999881	0.008806	-0.001501	0.012545	-0.046553	-0.510008	0.858909	0.885627	-0.418801	-0.200676	0.462058	0.751331	0.471173
10845		8.808858	-5.230324	2.881727	1.184728	-0.478604	1.244324	0.999751	0.014808	-0.005982	0.015553	-0.011493	-0.513986	0.857722	0.899634	-0.379754	-0.215511	0.436493	0.769159	0.466764
10846		8.521524	-4.672491	3.194389	1.805969	-0.785728	1.478464	0.999526	0.022571	-0.009820	0.018478	0.033133	-0.512578	0.858001	0.917670	-0.324506	-0.229300	0.395961	0.794959	0.459625
10847		8.089758	-4.044095	3.311490	2.025826	-1.066345	1.735060	0.999355	0.025317	-0.013326	0.021684	0.086778	-0.504777	0.858877	0.933351	-0.260239	-0.247249	0.348319	0.823090	0.448551
10848		7.703717	-3.585160	3.329922	2.089416	-1.373213	1.918760	0.999224	0.026111	-0.017161	0.023978	0.146923	-0.488118	0.860322	0.943825	-0.191083	-0.269597	0.295988	0.851603	0.432623
10849		7.811242	-3.492651	3.479769	2.186942	-1.630745	1.976413	0.999114	0.027329	-0.020378	0.024698	0.208808	-0.461646	0.862138	0.948648	-0.118591	-0.293263	0.237626	0.879101	0.413177
10850		7.914681	-2.369564	4.026554	2.138999	-1.728919	1.924566	0.999120	0.026730	-0.021605	0.024050	0.267310	-0.426700	0.863986	0.946977	-0.049548	-0.317457	0.178268	0.903035	0.390831
10851		8.154354	-2.183539	4.339136	1.807992	-1.727402	1.751161	0.999272	0.022594	-0.021587	0.021884	0.318642	-0.387824	0.864904	0.939682	0.009536	-0.341915	0.124355	0.921684	0.367470
10852		8.608248	-1.991497	4.449769	1.510358	-1.632042	1.443866	0.999451	0.018876	-0.020397	0.018045	0.359371	-0.348658	0.865616	0.930068	0.057945	-0.362789	0.076332	0.935457	0.345099
10853		8.642427	-1.704979	4.523111	0.995810	-1.449629	1.065509	0.999670	0.012446	-0.018118	0.013317	0.388236	-0.312911	0.866810	0.920667	0.090292	-0.379763	0.040566	0.945481	0.323142
10854		8.405473	-1.559554	4.347914	0.259350	-1.276343	0.763753	0.999822	0.003242	-0.015953	0.009546	0.407930	-0.281582	0.868507	0.912737	0.102372	-0.395514	0.022459	0.954061	0.298771
10855		8.186276	-1.241331	3.497175	-0.363173	-1.199706	0.497056	0.999858	-0.004539	-0.014996	0.006213	0.420136	-0.252969	0.871489	0.907270	0.097396	-0.409115	0.018614	0.962559	0.270431
10856		8.197197	0.519364	2.435878	-0.941878	-1.132085	0.111901	0.999830	-0.011773	-0.014150	0.001399	0.422685	-0.227063	0.877371	0.905840	0.075804	-0.416782	0.028127	0.970925	0.237724
10857		8.234312	0.087268	1.623154	-1.790702	-0.973814	-0.423967	0.999661	-0.022381	-0.012171	-0.005299	0.411986	-0.205644	0.887681	0.909318	0.030368	-0.414993	0.058384	0.978156	0.199507
10858		9.012597	-1.693050	1.266164	-1.556990	-0.802813	-0.811469	0.999709	-0.019460	-0.010034	-0.010142	0.391579	-0.187690	0.900799	0.916168	-0.011392	-0.400634	0.085457	0.982162	0.167495
10859		10.130638	-1.418565	1.368936	-1.133560	-0.711348	-1.057370	0.999773	-0.014168	-0.008891	-0.013216	0.365052	-0.170646	0.915214	0.925115	-0.043747	-0.377158	0.104398	0.984361	0.141898
10860		11.163656	-0.637876	1.897768	-1.223749	-0.760151	-1.145408	0.999735	-0.015296	-0.009501	-0.014316	0.336076	-0.151074	0.929639	0.933404	-0.078350	-0.350170	0.125738	0.985413	0.114682
10861		12.095118	-0.169099	3.264645	-1.540834	-0.717835	-1.137155	0.999673	-0.019258	-0.008972	-0.014213	0.306503	-0.131436	0.942751	0.939056	-0.120212	-0.322061	0.155661	0.984009	0.086580
10862		12.209108	-0.872740	3.665937	-1.775313	-0.625911	-1.025626	0.999641	-0.022189	-0.007823	-0.012819	0.278593	-0.113765	0.953648	0.940902	-0.166785	-0.294766	0.192588	0.979408	0.060576
10863		11.758023	-1.715979	3.396322	-1.217461	-0.504806	-0.849211	0.999808	-0.015217	-0.006310	-0.010614	0.254057	-0.099636	0.962043	0.942329	-0.198573	-0.269417	0.217879	0.975009	0.043441
10864		11.161877	-0.814375	3.341427	-0.572322	-0.382224	-0.666544	0.999928	-0.007154	-0.004778	-0.008332	0.233265	-0.089637	0.968273	0.945012	-0.213817	-0.247455	0.229215	0.972752	0.034832
10865		10.519124	-0.193888	3.396125	-0.361025	-0.205718	-0.464553	0.999970	-0.004513	-0.002571	-0.005807	0.216084	-0.085399	0.972633	0.947209	-0.223328	-0.230044	0.236862	0.970995	0.032633
10866		9.775401	-0.379119	3.129441	-0.382955	0.002838	-0.213898	0.999985	-0.004787	0.000035	-0.002674	0.203392	-0.088026	0.975132	0.947623	-0.232799	-0.218669	0.246258	0.968533	0.036066
10867		9.010176	-0.843477	2.744516	-0.376637	0.124520	0.006096	0.999988	-0.004708	0.001556	0.000076	0.195166	-0.095196	0.976139	0.946741	-0.241611	-0.212851	0.256109	0.965692	0.042971
10868		8.608437	-1.451878	2.705360	-0.298966	0.108279	0.099059	0.999991	-0.003737	0.001353	0.001238	0.189542	-0.103753	0.976375	0.946255	-0.246103	-0.209847	0.262061	0.963675	0.051530
10869		8.652370	-1.805986	3.016308	-0.157567	0.050881	0.061974	0.999998	-0.001970	0.000636	0.000775	0.184030	-0.110733	0.976663	0.946687	-0.247333	-0.206424	0.264419	0.962582	0.059313
10870		8.720560	-1.633189	3.167760	-0.166388	0.024296	-0.066187	0.999997	-0.002080	0.000304	-0.000827	0.176285	-0.116304	0.977444	0.947421	-0.249354	-0.200541	0.267054	0.961403	0.066231
10871		8.501556	-2.020613	2.801363	-0.319657	-0.040619	-0.189080	0.999989	-0.003996	-0.000508	-0.002363	0.166565	-0.119626	0.978747	0.947474	-0.255443	-0.192464	0.273038	0.959395	0.070794
10872		8.675179	-2.317935	2.365708	-0.286491	-0.117312	-0.263631	0.999987	-0.003581	-0.001466	-0.003295	0.156184	-0.120511	0.980349	0.947740	-0.261268	-0.183106	0.278200	0.957714	0.073407
10873		8.851888	-2.194343	1.995067	-0.186685	-0.157638	-0.301189	0.999988	-0.002334	-0.001970	-0.003765	0.145796	-0.119942	0.982017	0.948513	-0.265183	-0.173210	0.281189	0.956709	0.075104
10874		9.140384	-2.337787	1.618545	-0.005113	-0.176219	-0.279323	0.999991	-0.000064	-0.002203	-0.003492	0.136577	-0.118854	0.983474	0.950263	-0.264793	-0.163965	0.279905	0.956953	0.076778
10875		9.592091	-2.023689	1.364803	0.307202	-0.164146	-0.222726	0.999987	0.003840	-0.002052	-0.002784	0.129080	-0.118032	0.984585	0.953674	-0.257311	-0.155874	0.271743	0.959093	0.079350
10876		9.631697	-0.860532	1.400769	0.295844	-0.120039	-0.135672	0.999991	0.003698	-0.001500	-0.001696	0.123731	-0.118535	0.985211	0.956565	-0.249849	-0.150194	0.263957	0.961002	0.082472
10877		9.373909	-1.124080	1.336698	0.024978	-0.154350	-0.066325	0.999998	0.000312	-0.001929	-0.000829	0.120396	-0.118282	0.985654	0.957342	-0.248887	-0.146806	0.262681	0.961283	0.083271
10878		9.608408	-1.581859	1.339852	0.075717	-0.214362	-0.065230	0.999996	0.000946	-0.002680	-0.000815	0.117678	-0.116279	0.986221	0.958401	-0.246758	-0.143452	0.260038	0.962076	0.082404
10879		10.037087	-1.616643	1.165378	0.218678	-0.233221	-0.082277	0.999991	0.002733	-0.002915	-0.001028	0.114892	-0.113419	0.986882	0.960319	-0.241479	-0.139552	0.254139	0.963755	0.081175
10880		9.678719	-1.514176	0.969211	0.389857	-0.261874	-0.077807	0.999982	0.004873	-0.003273	-0.000973	0.112574	-0.109623	0.987578	0.963188	-0.232145	-0.135562	0.244122	0.966484	0.079454
10881		9.253047	-1.377040	0.864993	0.629681	-0.315325	-0.060406	0.999961	0.007871	-0.003942	-0.000755	0.111120	-0.104419	0.988306	0.967299	-0.216788	-0.131663	0.228001	0.970618	0.076915
10882		9.607228	-0.891387	0.929662	0.930653	-0.332166	-0.015929	0.999924	0.011633	-0.004152	-0.000199	0.110849	-0.098747	0.988919	0.972533	-0.194147	-0.128398	0.204675	0.975990	0.074513
10883		10.514359	-0.110821	0.862187	0.869942	-0.278677	0.014666	0.999935	0.010874	-0.003483	0.000183	0.110970	-0.094268	0.989343	0.976854	-0.172832	-0.126037	0.182872	0.980430	0.072907
10884		10.670847	-0.373077	0.713144	0.564814	-0.238710	0.006386	0.999971	0.007060	-0.002984	0.000080	0.110561	-0.090475	0.989743	0.979473	-0.158964	-0.123945	0.168547	0.983130	0.071043
10885		10.137889	-0.658025	0.820713	0.419980	-0.207869	0.007537	0.999983	0.005250	-0.002598	0.000094	0.109993	-0.087196	0.990100	0.981307	-0.148741	-0.122115	0.157917	0.985024	0.069206
10886		9.724379	-0.728659	0.862983	0.442481	-0.181848	0.005892	0.999982	0.005531	-0.002273	0.000074	0.109293	-0.084396	0.990420	0.983130	-0.137840	-0.120234	0.146667	0.986852	0.067907
10887		9.861184	-0.921291	0.712538	0.547575	-0.173073	-0.028457	0.999974	0.006845	-0.002163	-0.000356	0.107726	-0.081551	0.990830	0.985252	-0.124512	-0.117367	0.132941	0.988861	0.066935
10888		10.002675	-0.989048	0.561652	0.625631	-0.175020	-0.063342	0.999967	0.007820	-0.002188	-0.000792	0.105332	-0.078436	0.991339	0.987511	-0.109200	-0.113566	0.117161	0.990920	0.065954
10889		9.952252	-0.756575	0.599958	0.615677	-0.184136	-0.089688	0.999967	0.007696	-0.002302	-0.001121	0.102338	-0.074926	0.991924	0.989565	-0.094011	-0.109195	0.101433	0.992748	0.064523
10890		10.014801	-0.589158	0.639518	0.503428	-0.181189	-0.116075	0.999977	0.006293	-0.002265	-0.001451	0.098677	-0.071342	0.992559	0.991185	-0.081563	-0.104403	0.088404	0.994112	0.062664
10891		9.974082	-0.470028	0.653855	0.388120	-0.147374	-0.125211	0.999985	0.004851	-0.001842	-0.001565	0.094700	-0.068488	0.993147	0.992405	-0.072181	-0.099607	0.078509	0.995037	0.061133
10892		9.740052	-0.507645	0.524087	0.289749	-0.126695	-0.131587	0.999991	0.003622	-0.001584	-0.001645	0.090519	-0.066061	0.993701	0.993342	-0.065402	-0.094834	0.071255	0.995670	0.059701
10893		9.605196	-0.811574	0.442748	0.228830	-0.130732	-0.155562	0.999993	0.002860	-0.001634	-0.001945	0.085769	-0.063430	0.994294	0.994161	-0.060134	-0.089594	0.065474	0.996173	0.057903
10894		9.679475	-0.986912	0.491323	0.211142	-0.126892	-0.190579	0.999992	0.002639	-0.001586	-0.002382	0.080195	-0.060784	0.994924	0.994965	-0.055310	-0.083578	0.060110	0.996617	0.056043
10895		9.630879	-0.921259	0.532232	0.178916	-0.105889	-0.222520	0.999993	0.002236	-0.001324	-0.002781	0.073861	-0.058569	0.995547	0.995715	-0.051375	-0.076896	0.055650	0.996961	0.054524
10896		9.517894	-1.100097	0.514062	0.122931	-0.097676	-0.228297	0.999994	0.001537	-0.001221	-0.002854	0.067440	-0.056526	0.996121	0.996342	-0.048697	-0.070218	0.052477	0.997213	0.053035
10897		9.618663	-1.281110	0.490011	0.118628	-0.097124	-0.219320	0.999994	0.001483	-0.001214	-0.002741	0.061322	-0.054476	0.996630	0.996893	-0.046107	-0.063858	0.049430	0.997450	0.051479
10898		9.845414	-1.159191	0.540198	0.071251	-0.064643	-0.201232	0.999996	0.000891	-0.000808	-0.002515	0.055710	-0.053223	0.997027	0.997311	-0.044649	-0.058110	0.047609	0.997584	0.050593
10899		9.796116	-1.249684	0.487247	-0.012375	-0.020976	-0.164226	0.999998	-0.000155	-0.000262	-0.002053	0.051052	-0.053063	0.997285	0.997541	-0.045297	-0.053475	0.048012	0.997563	0.050620
10900		9.814532	-1.469103	0.429961	-0.062699	-0.008837	-0.125849	0.999998	-0.000784	-0.000110	-0.001573	0.047427	-0.053213	0.997456	0.997640	-0.047103	-0.049948	0.049641	0.997472	0.050854
10901		9.918940	-1.713023	0.383989	0.003213	-0.004497	-0.094191	0.999999	0.000040	-0.000056	-0.001177	0.044688	-0.053472	0.997569	0.997768	-0.047201	-0.047227	0.049611	0.997453	0.051243
10902		9.805719	-1.627269	0.376167	0.109952	-0.001102	-0.061167	0.999999	0.001374	-0.000014	-0.000765	0.042883	-0.053824	0.997629	0.997981	-0.044516	-0.045299	0.046848	0.997558	0.051807
10903		9.673547	-1.574222	0.325113	0.154880	-0.010821	-0.040021	0.999998	0.001936	-0.000135	-0.000500	0.041710	-0.053916	0.997674	0.998199	-0.040834	-0.043939	0.043108	0.997710	0.052116
10904		9.823243	-1.611861	0.264932	0.230081	-0.018102	-0.022904	0.999996	0.002876	-0.000226	-0.000286	0.041063	-0.053823	0.997706	0.998458	-0.035119	-0.042988	0.037352	0.997933	0.052297
10905		9.708970	-1.191768	0.212455	0.266434	0.005794	0.020133	0.999994	0.003330	0.000072	0.000252	0.041548	-0.054318	0.997659	0.998662	-0.028520	-0.043142	0.030796	0.998116	0.053060
10906		9.414686	-1.040526	0.128992	0.191336	0.019629	0.078109	0.999997	0.002392	0.000245	0.000976	0.043524	-0.055158	0.997529	0.998713	-0.023631	-0.044882	0.026049	0.998198	0.054059
10907		9.509819	-1.185809	0.073675	0.148788	0.021689	0.096933	0.999997	0.001860	0.000271	0.001212	0.046010	-0.056013	0.997369	0.998693	-0.019688	-0.047177	0.022279	0.998236	0.055034
10908		9.591563	-1.183703	0.103663	0.149887	0.032641	0.102407	0.999997	0.001874	0.000408	0.001280	0.048668	-0.057084	0.997182	0.998643	-0.015767	-0.049642	0.018556	0.998245	0.056239
10909		9.498587	-1.135482	0.116617	0.166470	0.032120	0.092689	0.999997	0.002081	0.000401	0.001159	0.051125	-0.058091	0.997001	0.998589	-0.011385	-0.051870	0.014364	0.998246	0.057427
10910		9.724570	-1.067667	0.121057	0.131249	0.022134	0.048087	0.999998	0.001641	0.000277	0.000601	0.052504	-0.058792	0.996889	0.998560	-0.007936	-0.053060	0.011031	0.998239	0.058291
10911		10.019881	-1.028888	0.175906	0.127564	0.016510	0.057680	0.999998	0.001595	0.000206	0.000721	0.054147	-0.059314	0.996770	0.998503	-0.004567	-0.054513	0.007786	0.998229	0.058978
10912		10.000659	-0.641582	0.341398	0.095595	0.038168	0.103241	0.999998	0.001195	0.000477	0.001291	0.056941	-0.060346	0.996552	0.998363	-0.001913	-0.057160	0.005356	0.998176	0.060138
10913		9.915760	-0.627767	0.488964	-0.026483	0.061047	0.144489	0.999998	-0.000331	0.000763	0.001806	0.060753	-0.061928	0.996230	0.998135	-0.002245	-0.061009	0.006015	0.998078	0.061676
10914		9.774780	-0.854662	0.635033	-0.127416	0.075647	0.156867	0.999996	-0.001593	0.000946	0.001961	0.064858	-0.063873	0.995848	0.997852	-0.005058	-0.065313	0.009209	0.997945	0.063408
10915		9.717293	-1.193903	0.618007	-0.096897	0.076868	0.147872	0.999997	-0.001211	0.000961	0.001848	0.068734	-0.065858	0.995459	0.997567	-0.007114	-0.069350	0.011649	0.997804	0.065208
10916		9.937439	-1.121722	0.672317	-0.038304	0.069086	0.153422	0.999998	-0.000479	0.000864	0.001918	0.072761	-0.067652	0.995052	0.997269	-0.007699	-0.073447	0.012629	0.997679	0.066908
10917		10.002284	-1.060080	0.804663	-0.035165	0.081681	0.165212	0.999997	-0.000440	0.001021	0.002065	0.077084	-0.069766	0.994581	0.996932	-0.008169	-0.077839	0.013555	0.997530	0.068923
10918		9.796400	-1.034982	0.966670	-0.032386	0.094757	0.180825	0.999997	-0.000405	0.001184	0.002260	0.081792	-0.072217	0.994030	0.996545	-0.008530	-0.082618	0.014446	0.997352	0.071270
10919		9.684964	-0.873687	1.026216	-0.083664	0.114934	0.192720	0.999996	-0.001046	0.001437	0.002409	0.086780	-0.075192	0.993386	0.996088	-0.010161	-0.087785	0.016694	0.997117	0.074016
10920		9.866714	-1.022238	0.942625	-0.165214	0.139650	0.206348	0.999993	-0.002065	0.001746	0.002579	0.092075	-0.078815	0.992628	0.995530	-0.013766	-0.093437	0.021029	0.996794	0.077196
10921		10.109005	-1.189306	0.897002	-0.211910	0.159804	0.215762	0.999991	-0.002649	0.001998	0.002697	0.097564	-0.082972	0.991764	0.994873	-0.018531	-0.099421	0.026628	0.996380	0.080739
10922		10.316656	-1.213390	0.926523	-0.243567	0.176112	0.219951	0.999989	-0.003045	0.002201	0.002749	0.103113	-0.087566	0.990808	0.994118	-0.024095	-0.105587	0.033119	0.995867	0.084567
10923		10.015451	-1.116941	0.957708	-0.213300	0.197124	0.222604	0.999990	-0.002666	0.002464	0.002783	0.108676	-0.092712	0.989744	0.993316	-0.028827	-0.111768	0.038894	0.995276	0.088959
10924		9.555562	-1.159468	0.989263	-0.188089	0.187152	0.219380	0.999991	-0.002351	0.002339	0.002742	0.114131	-0.097629	0.988657	0.992491	-0.032878	-0.117820	0.044008	0.994680	0.093143
10925		9.464093	-1.320386	0.991301	-0.130725	0.150668	0.180687	0.999994	-0.001634	0.001883	0.002259	0.118633	-0.101625	0.987724	0.991794	-0.035607	-0.122785	0.047647	0.994185	0.096567
10926		9.578585	-1.381538	1.042981	-0.099238	0.114805	0.107709	0.999997	-0.001240	0.001435	0.001346	0.121353	-0.104674	0.987075	0.991328	-0.037733	-0.125877	0.050422	0.993791	0.099187
10927		9.737711	-1.441898	0.949303	-0.076566	0.095443	0.047085	0.999999	-0.000957	0.001193	0.000589	0.122588	-0.107189	0.986652	0.991065	-0.039421	-0.127419	0.052553	0.993457	0.101398
10928		9.681343	-1.275996	0.951095	-0.068343	0.080989	0.032474	0.999999	-0.000854	0.001012	0.000406	0.123471	-0.109328	0.986307	0.990852	-0.040983	-0.128583	0.054479	0.993161	0.103267
10929		9.589482	-1.124392	1.064517	-0.086244	0.086003	0.036131	0.999999	-0.001078	0.001075	0.000452	0.124432	-0.111590	0.985933	0.990601	-0.042903	-0.129877	0.056793	0.992828	0.105202
10930		9.593373	-1.221692	1.041551	-0.153501	0.086249	0.040949	0.999997	-0.001919	0.001078	0.000512	0.125490	-0.113865	0.985539	0.990230	-0.046502	-0.131460	0.060799	0.992407	0.106917
10931		9.659752	-1.384574	0.992975	-0.168443	0.078431	0.045199	0.999997	-0.002106	0.000980	0.000565	0.126652	-0.115951	0.985147	0.989808	-0.050410	-0.133185	0.065104	0.991975	0.108385
10932		9.641277	-1.437208	0.957960	-0.160138	0.082945	0.046297	0.999997	-0.002002	0.001037	0.000579	0.127812	-0.118151	0.984736	0.989373	-0.054210	-0.134918	0.069323	0.991515	0.109966
10933		9.552247	-1.492706	0.910443	-0.126715	0.084480	0.052688	0.999998	-0.001584	0.001056	0.000659	0.129117	-0.120395	0.984294	0.988960	-0.057145	-0.136719	0.072708	0.991080	0.111688
10934		9.558325	-1.604813	0.921103	-0.095273	0.067370	0.051614	0.999999	-0.001191	0.000842	0.000645	0.130429	-0.122208	0.983897	0.988603	-0.059224	-0.138409	0.075185	0.990736	0.113090
10935		9.513059	-1.653252	0.972685	-0.075773	0.050477	0.043336	0.999999	-0.000947	0.000631	0.000542	0.131570	-0.123582	0.983573	0.988302	-0.060847	-0.139848	0.077130	0.990467	0.114131
10936		9.551066	-1.861498	0.934033	-0.028101	0.022436	0.027241	1.000000	-0.000351	0.000280	0.000341	0.132365	-0.124235	0.983385	0.988141	-0.061364	-0.140758	0.077831	0.990354	0.114639
10937		9.735356	-2.019655	0.904525	0.046589	-0.024568	-0.003222	1.000000	0.000582	-0.000307	-0.000040	0.132515	-0.123670	0.983435	0.988223	-0.060113	-0.140720	0.076520	0.990501	0.114248
10938		9.696325	-1.964156	0.946229	0.124124	-0.053354	-0.031746	0.999998	0.001552	-0.000667	-0.000397	0.132024	-0.122344	0.983668	0.988541	-0.057014	-0.139769	0.073183	0.990849	0.113415
10939		9.438597	-1.935423	0.902774	0.184904	-0.066536	-0.023048	0.999997	0.002311	-0.000832	-0.000288	0.131780	-0.120699	0.983903	0.988924	-0.052370	-0.138876	0.068289	0.991307	0.112461
10940		9.511614	-1.809476	0.890250	0.227641	-0.075215	0.004623	0.999996	0.002846	-0.000940	0.000058	0.132240	-0.118870	0.984064	0.989257	-0.046588	-0.138566	0.062317	0.991816	0.111432
10941		9.749114	-1.742521	0.950024	0.234123	-0.071161	0.024153	0.999995	0.002927	-0.000890	0.000302	0.133172	-0.117156	0.984144	0.989499	-0.040569	-0.138726	0.056179	0.992284	0.110523
10942		9.792729	-1.751033	0.986852	0.224039	-0.075528	0.038982	0.999996	0.002800	-0.000944	0.000487	0.134468	-0.115336	0.984183	0.989640	-0.034792	-0.139291	0.050307	0.992717	0.109463
10943		9.773338	-1.743772	0.971093	0.235315	-0.075633	0.045176	0.999995	0.002941	-0.000945	0.000565	0.135911	-0.113510	0.984197	0.989736	-0.028733	-0.139990	0.044169	0.993121	0.108439
10944		9.727846	-1.618159	1.025435	0.260877	-0.066740	0.063034	0.999994	0.003261	-0.000834	0.000788	0.137780	-0.111911	0.984120	0.989758	-0.021920	-0.141062	0.037359	0.993476	0.107745
10945		9.746532	-1.536875	0.988420	0.262680	-0.047647	0.080452	0.999994	0.003283	-0.000596	0.001006	0.140053	-0.110779	0.983927	0.989672	-0.015004	-0.142560	0.030555	0.993732	0.107534
10946		9.883946	-1.605014	0.923417	0.250930	-0.027264	0.083970	0.999994	0.003137	-0.000341	0.001050	0.142389	-0.110134	0.983664	0.989516	-0.008417	-0.144179	0.024158	0.993881	0.107781
10947		9.747049	-1.498688	0.972224	0.266849	-0.001760	0.091579	0.999994	0.003336	-0.000022	0.001145	0.144896	-0.110110	0.983301	0.989293	-0.001384	-0.145934	0.017430	0.993918	0.108731
10948		9.617921	-1.307758	1.014752	0.228900	0.028238	0.109637	0.999995	0.002861	0.000353	0.001370	0.147832	-0.110813	0.982785	0.988943	0.004807	-0.148216	0.011700	0.993830	0.110299
10949		9.675373	-1.242774	0.938985	0.143639	0.068351	0.130218	0.999997	0.001795	0.000854	0.001628	0.151262	-0.112488	0.982072	0.988459	0.008901	-0.151226	0.008270	0.993613	0.112536
10950		9.722704	-1.221148	0.853060	0.076701	0.119494	0.158909	0.999996	0.000959	0.001494	0.001986	0.155375	-0.115408	0.981091	0.987833	0.011371	-0.155105	0.006744	0.993253	0.115771
10951		9.744240	-1.185388	0.796940	0.008817	0.145924	0.179245	0.999996	0.000110	0.001824	0.002241	0.159979	-0.118965	0.979926	0.987095	0.012227	-0.159665	0.007013	0.992823	0.119386
10952		9.764089	-1.207301	0.858635	-0.090289	0.153657	0.177934	0.999995	-0.001129	0.001921	0.002224	0.164511	-0.122716	0.978712	0.986328	0.010714	-0.164448	0.009695	0.992384	0.122801
10953		9.695763	-1.467132	0.869608	-0.168459	0.142248	0.157321	0.999994	-0.002106	0.001778	0.001967	0.168537	-0.126139	0.977591	0.985590	0.007049	-0.169006	0.014427	0.991988	0.125509
10954		9.630997	-1.645366	0.896087	-0.146143	0.117527	0.124551	0.999996	-0.001827	0.001469	0.001557	0.171699	-0.129019	0.976664	0.984979	0.004023	-0.172630	0.018344	0.991634	0.127772
10955		9.619240	-1.696636	0.988244	-0.113916	0.088430	0.091638	0.999998	-0.001424	0.001105	0.001145	0.174050	-0.131154	0.975964	0.984505	0.001657	-0.175351	0.021381	0.991361	0.129410
10956		9.714059	-1.643514	1.014867	-0.116629	0.075906	0.063051	0.999998	-0.001458	0.000949	0.000788	0.175732	-0.132985	0.975414	0.984135	-0.000829	-0.177417	0.024403	0.991118	0.130729
10957		9.698520	-1.689441	1.030937	-0.156766	0.068226	0.039758	0.999998	-0.001960	0.000853	0.000497	0.176815	-0.134616	0.974995	0.983835	-0.004385	-0.179024	0.028375	0.990888	0.131665
10958		9.633700	-1.833663	1.083909	-0.164009	0.049851	0.025517	0.999998	-0.002050	0.000623	0.000319	0.177531	-0.135777	0.974704	0.983579	-0.008199	-0.180290	0.032471	0.990705	0.132092
10959		9.634201	-1.820132	1.140176	-0.145222	0.033276	0.009992	0.999998	-0.001815	0.000416	0.000125	0.177924	-0.136529	0.974527	0.983384	-0.011590	-0.181165	0.036029	0.990568	0.132198
10960		9.706990	-1.786167	1.124777	-0.187151	0.032716	-0.004887	0.999997	-0.002339	0.000409	-0.000061	0.177906	-0.137270	0.974426	0.983211	-0.016034	-0.181768	0.040575	0.990404	0.132113
10961		9.568799	-2.053102	1.074616	-0.184989	0.018511	-0.013467	0.999997	-0.002312	0.000231	-0.000168	0.177690	-0.137649	0.974412	0.983057	-0.020453	-0.182156	0.045003	0.990270	0.131682
10962		9.455548	-1.980182	1.203859	-0.135287	-0.006377	-0.022684	0.999999	-0.001691	-0.000080	-0.000284	0.177267	-0.137399	0.974525	0.982987	-0.023672	-0.182144	0.048095	0.990233	0.130865
10963		9.535758	-1.909312	1.227762	-0.132433	-0.018094	-0.029152	0.999999	-0.001655	-0.000226	-0.000364	0.176731	-0.136832	0.974702	0.982930	-0.026913	-0.182001	0.051136	0.990229	0.129740
10964		9.521311	-2.032770	1.197357	-0.123329	-0.023601	-0.024332	0.999999	-0.001542	-0.000295	-0.000304	0.176319	-0.136153	0.974871	0.982857	-0.029870	-0.181935	0.053891	0.990237	0.128552
10965		9.492212	-2.069836	1.184421	-0.075730	-0.032063	-0.016612	0.999999	-0.000947	-0.000401	-0.000208	0.176100	-0.135282	0.975032	0.982811	-0.031595	-0.181889	0.055412	0.990303	0.127393
10966		9.541590	-2.028006	1.224065	-0.061268	-0.034385	-0.006727	1.000000	-0.000766	-0.000430	-0.000084	0.176139	-0.134343	0.975155	0.982736	-0.032968	-0.182050	0.056606	0.990386	0.126217
10967		9.529396	-2.123712	1.225389	-0.034578	-0.037109	0.000855	1.000000	-0.000432	-0.000464	0.000011	0.176323	-0.133343	0.975259	0.982673	-0.033665	-0.182266	0.057136	0.990498	0.125097
10968		9.600282	-2.068056	1.225447	-0.016052	-0.038213	0.001852	1.000000	-0.000201	-0.000478	0.000023	0.176566	-0.132354	0.975350	0.982629	-0.033827	-0.182474	0.057145	0.990625	0.124082
10969		9.651822	-2.012061	1.199890	-0.035918	-0.031980	0.008975	1.000000	-0.000449	-0.000400	0.000112	0.177014	-0.131471	0.975388	0.982511	-0.034570	-0.182966	0.057774	0.990717	0.123052
10970		9.539979	-2.054387	1.153803	-0.033103	-0.028873	0.026044	1.000000	-0.000414	-0.000361	0.000326	0.177839	-0.130727	0.975338	0.982333	-0.035109	-0.183821	0.058274	0.990796	0.122174
10971		9.523970	-1.997177	1.168696	0.005488	-0.023839	0.037632	1.000000	0.000069	-0.000298	0.000470	0.178964	-0.130107	0.975215	0.982152	-0.034675	-0.184864	0.057868	0.990893	0.121579
10972		9.693728	-1.992481	1.076173	0.005824	-0.016149	0.037468	1.000000	0.000073	-0.000202	0.000468	0.180097	-0.129718	0.975058	0.981972	-0.034146	-0.185917	0.057411	0.990963	0.121230
10973		9.585520	-1.941059	1.099365	0.041778	-0.023377	0.038926	1.000000	0.000522	-0.000292	0.000487	0.181245	-0.129047	0.974934	0.981830	-0.032919	-0.186884	0.056211	0.991092	0.120736
10974		9.499183	-1.813603	1.197941	0.036353	-0.027274	0.042880	1.000000	0.000454	-0.000341	0.000536	0.182502	-0.128379	0.974788	0.981668	-0.031638	-0.187956	0.054970	0.991220	0.120252
10975		9.467210	-1.908515	1.175375	0.057866	-0.023594	0.048978	1.000000	0.000723	-0.000295	0.000612	0.183892	-0.127790	0.974604	0.981504	-0.029827	-0.189105	0.053236	0.991353	0.119941
10976		9.604017	-1.927515	1.126590	0.083713	-0.017088	0.031580	0.999999	0.001046	-0.000214	0.000395	0.184851	-0.127309	0.974486	0.981444	-0.027508	-0.189765	0.050964	0.991482	0.119862
10977		9.664576	-1.894909	1.134988	0.079350	-0.013456	0.002008	0.999999	0.000992	-0.000168	0.000025	0.185097	-0.126907	0.974492	0.981508	-0.025376	-0.189734	0.048807	0.991590	0.119863
10978		9.691523	-1.812042	1.141430	0.038125	-0.010512	-0.015899	1.000000	0.000477	-0.000131	-0.000199	0.184836	-0.126595	0.974582	0.981615	-0.024278	-0.189323	0.047628	0.991657	0.119780
10979		9.697523	-1.838993	1.113790	0.030506	-0.004812	-0.006856	1.000000	0.000381	-0.000060	-0.000086	0.184768	-0.126387	0.974622	0.981670	-0.023421	-0.189142	0.046732	0.991705	0.119743
10980		9.584109	-1.790908	1.135606	0.081925	-0.001027	0.007959	0.999999	0.001024	-0.000013	0.000099	0.185187	-0.126291	0.974554	0.981691	-0.021226	-0.189294	0.044592	0.991766	0.120048
10981		9.562031	-1.797603	1.118797	0.098317	0.002226	0.012430	0.999999	0.001229	0.000028	0.000155	0.185619	-0.126331	0.974467	0.981725	-0.018524	-0.189403	0.041979	0.991815	0.120584
10982		9.564480	-1.778386	1.096332	0.063537	0.003983	-0.004315	1.000000	0.000794	0.000050	-0.000054	0.185661	-0.126383	0.974452	0.981789	-0.016772	-0.189235	0.040260	0.991840	0.120967
10983		9.554858	-1.876461	1.065657	0.021642	0.003614	-0.019124	1.000000	0.000271	0.000045	-0.000239	0.185377	-0.126444	0.974498	0.981872	-0.016060	-0.188864	0.039531	0.991844	0.121174
10984		9.496447	-1.861691	1.052848	0.015416	0.002623	-0.027864	1.000000	0.000193	0.000033	-0.000348	0.184873	-0.126358	0.974605	0.981984	-0.015712	-0.188309	0.039108	0.991860	0.121177
10985		9.550307	-1.810586	1.035684	-0.004716	0.008071	-0.030901	1.000000	-0.000059	0.000101	-0.000386	0.184264	-0.126535	0.974698	0.982101	-0.015683	-0.187700	0.039037	0.991838	0.121381
10986		9.582535	-1.890970	1.028719	-0.018391	0.006400	-0.021019	1.000000	-0.000230	0.000080	-0.000263	0.183854	-0.126716	0.974752	0.982171	-0.015893	-0.187319	0.039228	0.991812	0.121535
10987		9.599837	-1.966301	1.006274	-0.004738	0.000178	-0.013518	1.000000	-0.000059	0.000002	-0.000169	0.183753	-0.126732	0.974769	0.982196	-0.015738	-0.187199	0.039065	0.991812	0.121584
10988		9.600718	-1.959896	1.086045	0.006052	-0.006137	-0.010619	1.000000	0.000076	-0.000077	-0.000133	0.183604	-0.126542	0.974821	0.982240	-0.015382	-0.186998	0.038658	0.991842	0.121471
10989		9.610848	-1.925831	1.064194	-0.003804	-0.006579	-0.006888	1.000000	-0.000048	-0.000082	-0.000086	0.183527	-0.126229	0.974876	0.982255	-0.015425	-0.186913	0.038631	0.991881	0.121158
10990		9.559500	-1.938249	1.055944	-0.019594	-0.003990	0.002807	1.000000	-0.000245	-0.000050	0.000035	0.183716	-0.126096	0.974858	0.982211	-0.015660	-0.187127	0.038862	0.991894	0.120976
10991		9.543440	-1.965613	1.064352	-0.026421	-0.004760	0.016896	1.000000	-0.000330	-0.000060	0.000211	0.184279	-0.125891	0.974778	0.982087	-0.016103	-0.187740	0.039332	0.991913	0.120668
10992		9.596135	-2.028494	1.071981	-0.010471	-0.002270	0.021760	1.000000	-0.000131	-0.000028	0.000272	0.185071	-0.125769	0.974644	0.981935	-0.016102	-0.188534	0.039405	0.991929	0.120517
10993		9.608767	-2.006578	1.083466	-0.017205	-0.004569	0.026163	1.000000	-0.000215	-0.000057	0.000327	0.185783	-0.125430	0.974552	0.981784	-0.016486	-0.189284	0.039809	0.991965	0.120082
10994		9.598984	-2.013073	1.116776	-0.013860	-0.007465	0.034774	1.000000	-0.000173	-0.000093	0.000435	0.186738	-0.124957	0.974430	0.981587	-0.016859	-0.190272	0.040204	0.992019	0.119508
10995		9.582510	-2.015571	1.100042	-0.009531	-0.006541	0.043068	1.000000	-0.000119	-0.000082	0.000538	0.187969	-0.124803	0.974214	0.981353	-0.016709	-0.191487	0.040176	0.992041	0.119335
10996		9.557522	-1.950320	1.133541	0.001180	-0.003154	0.052375	1.000000	0.000015	-0.000039	0.000655	0.189319	-0.124731	0.973961	0.981105	-0.016265	-0.192791	0.039889	0.992057	0.119295
10997		9.680349	-1.970678	1.087463	-0.008294	-0.002341	0.057747	1.000000	-0.000104	-0.000029	0.000722	0.190759	-0.124656	0.973690	0.980827	-0.016079	-0.194216	0.039866	0.992070	0.119199
10998		9.678507	-2.018961	1.088206	0.019178	-0.005637	0.051836	1.000000	0.000240	-0.000070	0.000648	0.192055	-0.124519	0.973452	0.980604	-0.015195	-0.195410	0.039124	0.992101	0.119186
10999		9.577092	-1.792792	1.208956	-0.001050	0.000133	0.055133	1.000000	-0.000013	0.000002	0.000689	0.193445	-0.124390	0.973194	0.980333	-0.014991	-0.196780	0.039066	0.992120	0.119044
11000		9.508959	-1.884517	1.151537	-0.021047	0.010701	0.066760	1.000000	-0.000263	0.000134	0.000834	0.195125	-0.124768	0.972810	0.979992	-0.014912	-0.198478	0.039270	0.992074	0.119362
11001		9.556378	-1.996286	1.067835	0.009529	0.014403	0.074376	1.000000	0.000119	0.000180	0.000930	0.197112	-0.125117	0.972364	0.979609	-0.014215	-0.200410	0.038897	0.992040	0.119764
11002		9.628170	-1.947649	1.173250	0.028341	0.011709	0.066572	1.000000	0.000354	0.000146	0.000832	0.199008	-0.125584	0.971918	0.979267	-0.012800	-0.202167	0.037830	0.992000	0.120433
11003		9.661607	-1.860375	1.185044	0.016441	0.014877	0.054006	1.000000	0.000206	0.000186	0.000675	0.200716	-0.125882	0.971528	0.978937	-0.012040	-0.203806	0.037353	0.991972	0.120814
11004		9.622039	-1.882215	1.174479	-0.004842	0.009042	0.052432	1.000000	-0.000061	0.000113	0.000655	0.201937	-0.126038	0.971255	0.978686	-0.011844	-0.205019	0.037344	0.991955	0.120959
11005		9.589525	-1.936614	1.152167	0.002923	0.007245	0.050368	1.000000	0.000037	0.000091	0.000630	0.203199	-0.126223	0.970968	0.978436	-0.011351	-0.206238	0.037053	0.991937	0.121195
11006		9.594397	-1.970260	1.122503	0.019294	0.009757	0.041339	1.000000	0.000241	0.000122	0.000517	0.204158	-0.126327	0.970753	0.978255	-0.010696	-0.207128	0.036549	0.991931	0.121396
11007		9.582552	-1.964260	1.122600	0.031357	0.004931	0.025819	1.000000	0.000392	0.000062	0.000323	0.204946	-0.126590	0.970553	0.978133	-0.009362	-0.207768	0.035387	0.991911	0.121903
11008		9.554861	-1.907061	1.168990	0.010623	-0.000498	0.013846	1.000000	0.000133	-0.000006	0.000173	0.205077	-0.126570	0.970527	0.978125	-0.008814	-0.207832	0.034859	0.991919	0.121994
11009		9.540498	-1.972104	1.157318	0.003308	-0.004173	0.005218	1.000000	0.000041	-0.000052	0.000065	0.205166	-0.126544	0.970512	0.978123	-0.008335	-0.207862	0.034393	0.991926	0.122066
11010		9.626109	-2.008352	1.124733	0.006408	-0.003860	-0.001387	1.000000	0.000080	-0.000048	-0.000017	0.205020	-0.126581	0.970538	0.978175	-0.007715	-0.207640	0.033771	0.991926	0.122236
11011		9.661027	-1.996632	1.121347	0.010123	-0.003177	-0.002649	1.000000	0.000127	-0.000040	-0.000033	0.204952	-0.126457	0.970568	0.978206	-0.007263	-0.207511	0.033291	0.991945	0.122212
11012		9.646410	-2.034893	1.089725	0.019166	-0.004694	-0.003953	1.000000	0.000240	-0.000059	-0.000049	0.204873	-0.126506	0.970579	0.978256	-0.006249	-0.207308	0.032291	0.991946	0.122475
11013		9.592735	-1.968547	1.142965	0.012277	-0.009951	-0.009354	1.000000	0.000153	-0.000124	-0.000117	0.204514	-0.126091	0.970708	0.978344	-0.005978	-0.206900	0.031892	0.992001	0.122138
11014		9.592931	-1.977631	1.122069	-0.015426	-0.009842	-0.012602	1.000000	-0.000193	-0.000123	-0.000158	0.204131	-0.126124	0.970785	0.978435	-0.005680	-0.206478	0.031556	0.991998	0.122244
11015		9.558759	-1.988829	1.081812	-0.018605	-0.008298	-0.004749	1.000000	-0.000233	-0.000104	-0.000059	0.204215	-0.125806	0.970808	0.978408	-0.006011	-0.206593	0.031826	0.992037	0.121862
11016		9.532749	-2.000382	1.086766	-0.019826	-0.006538	0.007166	1.000000	-0.000248	-0.000082	0.000090	0.204351	-0.125609	0.970805	0.978374	-0.006238	-0.206751	0.032026	0.992060	0.121618
11017		9.514025	-2.033131	1.139725	-0.026302	-0.008513	0.008212	1.000000	-0.000329	-0.000106	0.000103	0.204520	-0.125314	0.970808	0.978324	-0.006708	-0.206969	0.032449	0.992095	0.121225
11018		9.564662	-2.091076	1.128243	-0.025044	-0.015745	-0.004709	1.000000	-0.000313	-0.000197	-0.000059	0.204759	-0.124867	0.970815	0.978264	-0.007089	-0.207242	0.032760	0.992148	0.120701
11019		9.588266	-2.107789	1.123368	-0.006571	-0.023804	-0.015999	1.000000	-0.000082	-0.000298	-0.000200	0.204261	-0.124266	0.970997	0.978377	-0.007008	-0.206710	0.032492	0.992224	0.120147
11020		9.615327	-2.067540	1.129333	0.007847	-0.031577	-0.019192	1.000000	0.000098	-0.000395	-0.000240	0.204115	-0.123156	0.971169	0.978414	-0.007054	-0.206532	0.032286	0.992362	0.119058
11021		9.548710	-1.982102	1.140368	-0.003732	-0.030030	-0.013757	1.000000	-0.000047	-0.000375	-0.000172	0.204037	-0.122339	0.971289	0.978439	-0.006977	-0.206417	0.032030	0.992464	0.118278
11022		9.595086	-2.099574	1.118752	-0.019328	-0.026615	-0.005287	1.000000	-0.000242	-0.000333	-0.000066	0.204265	-0.121633	0.971330	0.978388	-0.007218	-0.206653	0.032147	0.992549	0.117530
11023		9.620821	-2.163836	1.152785	0.014360	-0.026147	-0.008362	1.000000	0.000179	-0.000327	-0.000105	0.204054	-0.120953	0.971459	0.978456	-0.006637	-0.206350	0.031407	0.992636	0.116993
11024		9.565608	-1.931845	1.216436	-0.011231	-0.019662	-0.007775	1.000000	-0.000140	-0.000246	-0.000097	0.203606	-0.120335	0.971630	0.978548	-0.006862	-0.205906	0.031445	0.992710	0.116357
11025		9.502544	-2.045915	1.171687	-0.045449	-0.009985	0.005661	1.000000	-0.000568	-0.000125	0.000071	0.203431	-0.119961	0.971713	0.978554	-0.007895	-0.205838	0.032364	0.992747	0.115782
11026		9.534684	-2.118287	1.133542	-0.007562	-0.001476	0.017376	1.000000	-0.000095	-0.000018	0.000217	0.203722	-0.119627	0.971693	0.978484	-0.008236	-0.206159	0.032665	0.992785	0.115375
11027		9.580585	-2.089978	1.188691	0.015418	-0.000416	0.018875	1.000000	0.000193	-0.000005	0.000236	0.204417	-0.119701	0.971538	0.978364	-0.007374	-0.206762	0.031914	0.992783	0.115604
11028		9.645197	-2.020382	1.167325	0.011932	0.004025	0.012137	1.000000	0.000149	0.000050	0.000152	0.204602	-0.119579	0.971514	0.978333	-0.007128	-0.206915	0.031668	0.992799	0.115529
11029		9.638187	-2.016578	1.158648	-0.028138	0.008217	0.018059	1.000000	-0.000352	0.000103	0.000226	0.204704	-0.119822	0.971462	0.978300	-0.007440	-0.207062	0.032039	0.992767	0.115699
11030		9.582345	-2.042597	1.158320	-0.025233	0.009677	0.029731	1.000000	-0.000315	0.000121	0.000372	0.205385	-0.120025	0.971294	0.978142	-0.007773	-0.207793	0.032490	0.992740	0.115805
11031		9.558495	-2.057143	1.139966	0.001397	0.016696	0.035240	1.000000	0.000017	0.000209	0.000441	0.206032	-0.120138	0.971142	0.977999	-0.007887	-0.208462	0.032704	0.992726	0.115869
11032		9.573635	-2.019377	1.130214	-0.001082	0.017094	0.030840	1.000000	-0.000014	0.000214	0.000385	0.206504	-0.120552	0.970991	0.977905	-0.007571	-0.208914	0.032536	0.992678	0.116325
11033		9.576513	-2.020061	1.145018	-0.012427	0.012659	0.022643	1.000000	-0.000155	0.000158	0.000283	0.206859	-0.121000	0.970860	0.977834	-0.007312	-0.209256	0.032419	0.992626	0.116805
11034		9.558688	-2.050935	1.117176	-0.005609	0.006595	0.018803	1.000000	-0.000070	0.000082	0.000235	0.207197	-0.121199	0.970763	0.977767	-0.007066	-0.209575	0.032260	0.992603	0.117040
11035		9.552453	-1.991098	1.104710	0.017761	0.006635	0.021340	1.000000	0.000222	0.000083	0.000267	0.207804	-0.121489	0.970597	0.977666	-0.006058	-0.210076	0.031402	0.992574	0.117517
11036		9.587355	-1.998578	1.101706	-0.002353	0.005856	0.020192	1.000000	-0.000029	0.000073	0.000252	0.208092	-0.121606	0.970520	0.977610	-0.005841	-0.210344	0.031248	0.992561	0.117668
11037		9.573715	-2.034121	1.066402	-0.004970	0.006526	0.014236	1.000000	-0.000062	0.000082	0.000178	0.208451	-0.121847	0.970413	0.977541	-0.005494	-0.210672	0.031001	0.992534	0.117966
11038		9.590960	-2.060247	1.096947	0.003274	0.004722	0.010273	1.000000	0.000041	0.000059	0.000128	0.208291	-0.121599	0.970478	0.977568	-0.005797	-0.210539	0.031228	0.992562	0.117664
11039		9.596292	-1.998389	1.145544	0.006151	0.004944	0.010639	1.000000	0.000077	0.000062	0.000133	0.208145	-0.121585	0.970511	0.977606	-0.005606	-0.210369	0.031019	0.992565	0.117696
11040		9.571941	-2.004033	1.149103	-0.008394	0.003293	0.013748	1.000000	-0.000105	0.000041	0.000172	0.207959	-0.121827	0.970521	0.977657	-0.005203	-0.210141	0.030650	0.992538	0.118024
11041		9.548699	-2.060942	1.111046	-0.010625	0.000780	0.016093	1.000000	-0.000133	0.000010	0.000201	0.208462	-0.121950	0.970398	0.977555	-0.004940	-0.210621	0.030478	0.992524	0.118183
11042		9.566341	-2.077942	1.118670	0.006067	0.001131	0.015138	1.000000	0.000076	0.000014	0.000189	0.208386	-0.121937	0.970416	0.977583	-0.004585	-0.210501	0.030117	0.992527	0.118248
11043		9.593386	-2.047050	1.148360	0.008556	-0.001120	0.010443	1.000000	0.000107	-0.000014	0.000131	0.208584	-0.121943	0.970372	0.977558	-0.003980	-0.210629	0.029547	0.992529	0.118376
11044		9.585874	-2.026246	1.180634	-0.004452	-0.000169	0.007917	1.000000	-0.000056	-0.000002	0.000099	0.208309	-0.121838	0.970445	0.977617	-0.004011	-0.210352	0.029522	0.992542	0.118275
11045		9.614362	-2.044840	1.168935	-0.014197	0.001452	0.005966	1.000000	-0.000177	0.000018	0.000075	0.208377	-0.121808	0.970434	0.977597	-0.004198	-0.210442	0.029708	0.992545	0.118204
11046		9.544695	-2.023745	1.151964	-0.011162	0.004844	0.011917	1.000000	-0.000140	0.000061	0.000149	0.208730	-0.122186	0.970310	0.977536	-0.003615	-0.210740	0.029257	0.992501	0.118687
11047		9.606194	-2.019288	1.140491	-0.018447	0.010298	0.011962	1.000000	-0.000231	0.000129	0.000150	0.208764	-0.122352	0.970282	0.977517	-0.003951	-0.210819	0.029628	0.992479	0.118777
11048		9.648332	-2.127666	1.128663	-0.015846	0.004968	0.002554	1.000000	-0.000198	0.000062	0.000032	0.208825	-0.122441	0.970258	0.977498	-0.004144	-0.210906	0.029844	0.992467	0.118821
11049		9.593509	-2.013430	1.224197	-0.011131	0.000986	-0.002058	1.000000	-0.000139	0.000012	-0.000026	0.208916	-0.122398	0.970244	0.977475	-0.004251	-0.211009	0.029952	0.992472	0.118753
11050		9.514434	-2.047431	1.207084	-0.015543	0.005848	0.004832	1.000000	-0.000194	0.000073	0.000060	0.208464	-0.122345	0.970347	0.977557	-0.004787	-0.210617	0.030413	0.992476	0.118601
11051		9.506455	-2.064458	1.161307	0.003230	0.005327	0.008083	1.000000	0.000040	0.000067	0.000101	0.208539	-0.122523	0.970309	0.977554	-0.004304	-0.210640	0.029985	0.992456	0.118875
11052		9.539031	-2.086377	1.184616	-0.000642	0.005728	0.001342	1.000000	-0.000008	0.000072	0.000017	0.208297	-0.122713	0.970337	0.977616	-0.003959	-0.210361	0.029656	0.992434	0.119142
11053		9.561987	-2.094138	1.164934	0.011345	0.003993	-0.009576	1.000000	0.000142	0.000050	-0.000120	0.207941	-0.122828	0.970399	0.977709	-0.003387	-0.209937	0.029073	0.992422	0.119386
11054		9.584859	-2.038887	1.204075	0.013326	-0.001285	-0.006535	1.000000	0.000167	-0.000016	-0.000082	0.207979	-0.122935	0.970377	0.977727	-0.002481	-0.209868	0.028207	0.992412	0.119681
11055		9.559078	-2.040225	1.150037	-0.003070	0.001275	0.001553	1.000000	-0.000038	0.000016	0.000019	0.207798	-0.122876	0.970423	0.977765	-0.002520	-0.209689	0.028211	0.992419	0.119620
11056		9.580947	-2.096914	1.112469	-0.006520	0.006953	0.006133	1.000000	-0.000081	0.000087	0.000077	0.207862	-0.122937	0.970402	0.977747	-0.002635	-0.209769	0.028346	0.992411	0.119654
11057		9.568001	-2.092798	1.116162	0.006915	0.005213	0.005411	1.000000	0.000086	0.000065	0.000068	0.207484	-0.123076	0.970465	0.977840	-0.002209	-0.209341	0.027908	0.992395	0.119890
11058		9.569632	-2.060908	1.132603	0.008248	0.000814	0.006555	1.000000	0.000103	0.000010	0.000082	0.207724	-0.123303	0.970385	0.977814	-0.001238	-0.209472	0.027029	0.992368	0.120310
11059		9.533202	-2.094582	1.139191	0.023436	-0.004090	0.008590	1.000000	0.000293	-0.000051	0.000107	0.207693	-0.122922	0.970440	0.977830	-0.000984	-0.209399	0.026695	0.992416	0.119992
11060		9.562507	-1.994542	1.182789	0.021661	-0.003155	0.013132	1.000000	0.000271	-0.000039	0.000164	0.207623	-0.122574	0.970499	0.977853	-0.000776	-0.209294	0.026407	0.992459	0.119698
11061		9.581326	-1.991438	1.146433	-0.018756	-0.001099	0.017570	1.000000	-0.000234	-0.000014	0.000220	0.208248	-0.122374	0.970390	0.977705	-0.001289	-0.209980	0.026947	0.992483	0.119378
11062		9.582213	-2.070290	1.124827	-0.024546	0.003939	0.017873	1.000000	-0.000307	0.000049	0.000223	0.208542	-0.122635	0.970294	0.977642	-0.001196	-0.210273	0.026947	0.992451	0.119644
11063		9.574206	-2.017061	1.155432	-0.011241	0.000413	0.018635	1.000000	-0.000141	0.000005	0.000233	0.208082	-0.122591	0.970399	0.977739	-0.001315	-0.209822	0.026998	0.992456	0.119588
11064		9.546530	-2.042066	1.184116	-0.002843	-0.003088	0.017018	1.000000	-0.000036	-0.000039	0.000213	0.208307	-0.122453	0.970368	0.977694	-0.001189	-0.210030	0.026873	0.992474	0.119473
11065		9.549093	-1.957589	1.154040	-0.000495	-0.001638	0.014822	1.000000	-0.000006	-0.000020	0.000185	0.208759	-0.122697	0.970240	0.977622	-0.000173	-0.210369	0.025980	0.992444	0.119915
11066		9.566029	-1.986444	1.141870	-0.029567	-0.001857	0.015156	1.000000	-0.000370	-0.000023	0.000189	0.208875	-0.122713	0.970213	0.977589	-0.000455	-0.210521	0.026276	0.992442	0.119868
11067		9.578244	-2.056151	1.119141	-0.019878	0.000581	0.011073	1.000000	-0.000248	0.000007	0.000138	0.209135	-0.122718	0.970156	0.977527	-0.000667	-0.210809	0.026517	0.992441	0.119821
11068		9.558376	-2.030160	1.152947	0.003196	-0.003781	0.007282	1.000000	0.000040	-0.000047	0.000091	0.209576	-0.122758	0.970056	0.977450	0.000045	-0.211168	0.025879	0.992437	0.119999
11069		9.557390	-1.980941	1.192306	0.001264	-0.009442	0.002173	1.000000	0.000016	-0.000118	0.000027	0.209323	-0.122836	0.970101	0.977531	0.001071	-0.210791	0.024853	0.992426	0.120300
11070		9.593430	-2.020834	1.145837	-0.018164	-0.009419	-0.002163	1.000000	-0.000227	-0.000118	-0.000027	0.208657	-0.122621	0.970271	0.977672	0.000905	-0.210135	0.024888	0.992453	0.120072
11071		9.561486	-2.093602	1.142990	-0.010876	-0.012055	-0.003834	1.000000	-0.000136	-0.000151	-0.000048	0.208711	-0.122429	0.970284	0.977668	0.001188	-0.210150	0.024576	0.992477	0.119943
11072		9.525033	-2.004601	1.184662	0.006798	-0.010327	-0.001445	1.000000	0.000085	-0.000129	-0.000018	0.208288	-0.122559	0.970358	0.977793	0.002581	-0.209558	0.023179	0.992458	0.120375
11073		9.644472	-2.111662	1.130411	-0.002320	-0.014413	-0.004730	1.000000	-0.000029	-0.000180	-0.000059	0.208370	-0.122277	0.970377	0.977788	0.003054	-0.209576	0.022662	0.992491	0.120197
11074		9.606053	-2.028037	1.216403	0.002668	-0.016891	-0.009289	1.000000	0.000033	-0.000211	-0.000116	0.208054	-0.121932	0.970488	0.977869	0.003567	-0.209188	0.022045	0.992532	0.119975
11075		9.501492	-1.973514	1.261146	-0.026937	-0.010427	-0.002557	1.000000	-0.000337	-0.000130	-0.000032	0.207353	-0.121675	0.970670	0.978008	0.002991	-0.208546	0.022471	0.992566	0.119619
11076		9.500272	-2.119939	1.143054	-0.019682	0.000493	0.008373	1.000000	-0.000246	0.000006	0.000105	0.207110	-0.121781	0.970708	0.978060	0.003004	-0.208302	0.022451	0.992552	0.119731
11077		9.585954	-2.111174	1.167941	-0.004954	0.003858	0.011641	1.000000	-0.000062	0.000048	0.000146	0.206789	-0.121906	0.970761	0.978131	0.003108	-0.207969	0.022335	0.992537	0.119882
11078		9.636891	-2.077058	1.196266	0.011211	0.007461	0.005065	1.000000	0.000140	0.000093	0.000063	0.206480	-0.122338	0.970773	0.978223	0.004397	-0.207511	0.021117	0.992479	0.120581
11079		9.622094	-1.965560	1.179829	-0.007714	0.005421	0.009805	1.000000	-0.000096	0.000068	0.000123	0.206996	-0.122639	0.970625	0.978125	0.005082	-0.207954	0.020570	0.992438	0.121009
11080		9.563831	-2.031879	1.185009	-0.039594	0.006539	0.020526	1.000000	-0.000495	0.000082	0.000257	0.207439	-0.122779	0.970512	0.978014	0.004345	-0.208493	0.021382	0.992425	0.120980
11081		9.541389	-2.129300	1.124310	-0.015087	0.005607	0.023078	1.000000	-0.000189	0.000070	0.000288	0.208170	-0.122807	0.970352	0.977851	0.004094	-0.209261	0.021726	0.992422	0.120939
11082		9.570776	-2.092907	1.149473	0.010351	0.001277	0.017847	1.000000	0.000129	0.000016	0.000223	0.208873	-0.122918	0.970187	0.977719	0.005014	-0.209859	0.020931	0.992404	0.121226
11083		9.553169	-1.999621	1.198137	-0.005893	-0.005074	0.010267	1.000000	-0.000074	-0.000063	0.000128	0.208929	-0.122822	0.970187	0.977713	0.005307	-0.209878	0.020629	0.992415	0.121193
11084		9.580596	-2.065661	1.167216	-0.009720	-0.008740	0.009563	1.000000	-0.000121	-0.000109	0.000120	0.208959	-0.122635	0.970205	0.977712	0.005499	-0.209880	0.020403	0.992437	0.121050
11085		9.620048	-2.016799	1.172420	-0.002298	-0.007598	0.011269	1.000000	-0.000029	-0.000095	0.000141	0.209013	-0.122520	0.970207	0.977708	0.005892	-0.209885	0.019999	0.992449	0.121020
11086		9.593314	-2.030409	1.178315	-0.006829	-0.005107	0.013989	1.000000	-0.000085	-0.000064	0.000175	0.209380	-0.122381	0.970146	0.977632	0.006008	-0.210237	0.019900	0.992465	0.120901
11087		9.552832	-2.024800	1.189223	-0.007176	0.000120	0.010541	1.000000	-0.000090	0.000001	0.000132	0.209359	-0.122355	0.970154	0.977637	0.006020	-0.210214	0.019880	0.992468	0.120880
11088		9.570135	-2.016475	1.176778	-0.004886	0.001417	0.004721	1.000000	-0.000061	0.000018	0.000059	0.208939	-0.122404	0.970238	0.977732	0.006241	-0.209766	0.019621	0.992461	0.120982
11089		9.590296	-2.033407	1.200818	-0.005393	0.000613	0.005178	1.000000	-0.000067	0.000008	0.000065	0.208785	-0.122329	0.970281	0.977761	0.006018	-0.209636	0.019806	0.992471	0.120865
11090		9.597401	-2.020833	1.207555	0.001844	0.001236	0.003933	1.000000	0.000023	0.000015	0.000049	0.208466	-0.122241	0.970360	0.977829	0.005938	-0.209323	0.019826	0.992483	0.120769
11091		9.574998	-2.002380	1.207525	-0.000683	0.002103	0.001574	1.000000	-0.000009	0.000026	0.000020	0.208126	-0.122324	0.970423	0.977909	0.006291	-0.208938	0.019453	0.992470	0.120931
11092		9.557211	-1.978462	1.219462	-0.013658	0.007321	0.004548	1.000000	-0.000171	0.000092	0.000057	0.207853	-0.122398	0.970472	0.977958	0.005810	-0.208723	0.019909	0.992464	0.120908
11093		9.563235	-2.038296	1.189696	-0.021015	0.013227	0.006699	1.000000	-0.000263	0.000165	0.000084	0.207674	-0.122846	0.970454	0.977997	0.005958	-0.208534	0.019835	0.992408	0.121380
11094		9.555756	-2.077889	1.164844	-0.005843	0.011787	-0.003047	1.000000	-0.000073	0.000147	-0.000038	0.207471	-0.123036	0.970473	0.978035	0.005711	-0.208364	0.020094	0.992386	0.121519
11095		9.563252	-2.062394	1.173527	0.004264	0.005780	-0.012066	1.000000	0.000053	0.000072	-0.000151	0.207109	-0.123267	0.970521	0.978126	0.006426	-0.207916	0.019393	0.992353	0.121902
11096		9.586785	-2.033358	1.151942	0.001295	-0.000890	-0.010593	1.000000	0.000016	-0.000011	-0.000132	0.206582	-0.123422	0.970614	0.978253	0.007250	-0.207286	0.018547	0.992328	0.122236
11097		9.507045	-1.954349	1.194718	-0.002777	-0.001269	-0.000217	1.000000	-0.000035	-0.000016	-0.000003	0.206063	-0.123382	0.970729	0.978367	0.007386	-0.206746	0.018339	0.992332	0.122235
11098		9.596743	-2.142069	1.094731	-0.020012	-0.002954	-0.004438	1.000000	-0.000250	-0.000037	-0.000055	0.205761	-0.123514	0.970776	0.978440	0.007913	-0.206378	0.017809	0.992311	0.122479
11099		9.617725	-2.095115	1.136438	0.005419	-0.008660	-0.016785	1.000000	0.000068	-0.000108	-0.000210	0.205064	-0.123540	0.970920	0.978611	0.009242	-0.205513	0.016416	0.992297	0.122793
11100		9.559182	-1.960769	1.199025	-0.036156	-0.004937	-0.002923	1.000000	-0.000452	-0.000062	-0.000037	0.204857	-0.123492	0.970970	0.978648	0.008840	-0.205353	0.016776	0.992306	0.122667
11101		9.486967	-2.112540	1.168771	-0.007146	-0.004001	0.016582	1.000000	-0.000089	-0.000050	0.000207	0.204885	-0.123479	0.970966	0.978648	0.009187	-0.205337	0.016435	0.992305	0.122725
11102		9.530479	-1.999592	1.165884	-0.007673	-0.004752	0.009145	1.000000	-0.000096	-0.000059	0.000114	0.204803	-0.123232	0.971015	0.978659	0.008762	-0.205303	0.016792	0.992339	0.122397
11103		9.615180	-1.882752	1.169157	-0.085170	0.006213	-0.003428	0.999999	-0.001065	0.000078	-0.000043	0.204848	-0.123555	0.970964	0.978632	0.007802	-0.205472	0.017812	0.992307	0.122513
11104		9.603072	-2.155218	1.090512	-0.118991	0.009108	-0.002346	0.999999	-0.001487	0.000114	-0.000029	0.204125	-0.123767	0.971089	0.978727	0.004856	-0.205111	0.020671	0.992299	0.122126
11105		9.541089	-2.033428	1.198926	-0.064108	0.009601	0.008243	1.000000	-0.000801	0.000120	0.000103	0.204167	-0.124005	0.971050	0.978691	0.003668	-0.205305	0.021898	0.992275	0.122112
11106		9.510943	-2.092153	1.170676	-0.034223	0.000736	0.013811	1.000000	-0.000428	0.000009	0.000173	0.204090	-0.123991	0.971068	0.978692	0.002987	-0.205311	0.022556	0.992279	0.121959
11107		9.556624	-2.076792	1.165129	-0.010476	-0.011528	0.007863	1.000000	-0.000131	-0.000144	0.000098	0.204111	-0.123735	0.971096	0.978695	0.003252	-0.205294	0.022244	0.992310	0.121763
11108		9.537613	-2.041408	1.134957	-0.020655	-0.010312	0.005775	1.000000	-0.000258	-0.000129	0.000072	0.203836	-0.123464	0.971189	0.978748	0.002950	-0.205048	0.022451	0.992345	0.121441
11109		9.547975	-2.080597	1.154339	0.006099	-0.009095	0.006522	1.000000	0.000076	-0.000114	0.000082	0.203774	-0.123001	0.971260	0.978752	0.002459	-0.205035	0.022831	0.992404	0.120888
11110		9.579520	-1.995509	1.195335	-0.000899	-0.007674	0.013559	1.000000	-0.000011	-0.000096	0.000169	0.204048	-0.122811	0.971227	0.978704	0.002859	-0.205257	0.022431	0.992426	0.120779
11111		9.580809	-2.062631	1.149486	-0.022782	-0.005676	0.015638	1.000000	-0.000285	-0.000071	0.000195	0.204266	-0.122762	0.971187	0.978665	0.003154	-0.205440	0.022157	0.992431	0.120788
11112		9.563959	-2.115629	1.136457	-0.007394	-0.007426	0.015260	1.000000	-0.000092	-0.000093	0.000191	0.204317	-0.122568	0.971201	0.978659	0.003333	-0.205466	0.021947	0.992455	0.120633
11113		9.598899	-2.038123	1.130189	-0.003670	-0.006103	0.011749	1.000000	-0.000046	-0.000076	0.000147	0.204397	-0.122462	0.971198	0.978654	0.003869	-0.205479	0.021406	0.992466	0.120638
11114		9.569493	-2.059723	1.140704	-0.014332	-0.006328	0.012333	1.000000	-0.000179	-0.000079	0.000154	0.204679	-0.122267	0.971163	0.978592	0.003728	-0.205775	0.021539	0.992490	0.120412
11115		9.565704	-2.081919	1.164910	-0.004250	-0.008565	0.017294	1.000000	-0.000053	-0.000107	0.000216	0.204517	-0.121988	0.971232	0.978627	0.003708	-0.205608	0.021480	0.992525	0.120140
11116		9.580038	-2.024192	1.176028	-0.010353	-0.002401	0.020288	1.000000	-0.000129	-0.000030	0.000254	0.204309	-0.121888	0.971288	0.978668	0.003519	-0.205420	0.021620	0.992538	0.120007
11117		9.568464	-2.052471	1.133160	-0.032247	0.005079	0.023474	1.000000	-0.000403	0.000063	0.000293	0.204562	-0.121843	0.971241	0.978585	0.002218	-0.205831	0.022925	0.992547	0.119688
11118		9.543137	-2.096387	1.136022	-0.024773	0.003583	0.022476	1.000000	-0.000310	0.000045	0.000281	0.204819	-0.121941	0.971174	0.978528	0.002113	-0.206105	0.023080	0.992535	0.119756
11119		9.545609	-2.082666	1.149306	-0.012357	0.000054	0.018916	1.000000	-0.000154	0.000001	0.000236	0.204963	-0.121953	0.971142	0.978502	0.002313	-0.206226	0.022904	0.992533	0.119805
11120		9.588308	-2.076417	1.150249	-0.000982	-0.004440	0.014046	1.000000	-0.000012	-0.000055	0.000176	0.205042	-0.121729	0.971154	0.978481	0.002087	-0.206327	0.023090	0.992561	0.119537
11121		9.612025	-2.067145	1.124246	-0.011996	-0.008357	0.013958	1.000000	-0.000150	-0.000104	0.000174	0.205259	-0.121534	0.971133	0.978442	0.002339	-0.206511	0.022827	0.992585	0.119394
11122		9.530362	-2.015241	1.169095	-0.000338	-0.007419	0.018958	1.000000	-0.000004	-0.000093	0.000237	0.205363	-0.121312	0.971138	0.978427	0.002621	-0.206577	0.022514	0.992611	0.119233
11123		9.628384	-2.099667	1.148693	-0.006058	-0.008237	0.016198	1.000000	-0.000076	-0.000103	0.000202	0.205483	-0.121089	0.971141	0.978406	0.002777	-0.206674	0.022329	0.992638	0.119044
11124		9.659650	-2.085286	1.190827	0.018244	-0.013393	0.004269	1.000000	0.000228	-0.000167	0.000053	0.204996	-0.120742	0.971287	0.978525	0.003427	-0.206098	0.021556	0.992678	0.118852
11125		9.545553	-1.900258	1.235884	-0.020958	-0.005537	0.008249	1.000000	-0.000262	-0.000069	0.000103	0.204950	-0.120605	0.971314	0.978535	0.003405	-0.206051	0.021543	0.992695	0.118714
11126		9.479485	-2.088418	1.169859	-0.016853	0.002770	0.017427	1.000000	-0.000211	0.000035	0.000218	0.205124	-0.120677	0.971268	0.978501	0.003536	-0.206212	0.021451	0.992685	0.118808
11127		9.530694	-2.081878	1.176932	0.001215	0.006030	0.011851	1.000000	0.000015	0.000075	0.000148	0.205000	-0.120757	0.971284	0.978524	0.003393	-0.206106	0.021594	0.992676	0.118859
11128		9.617100	-2.121711	1.161753	0.000255	0.006303	-0.008169	1.000000	0.000003	0.000079	-0.000102	0.204526	-0.120915	0.971364	0.978633	0.003847	-0.205577	0.021120	0.992655	0.119118
11129		9.620713	-2.075761	1.157546	0.007124	0.003091	-0.013770	1.000000	0.000089	0.000039	-0.000172	0.203938	-0.120979	0.971480	0.978769	0.004421	-0.204917	0.020495	0.992645	0.119312
11130		9.593163	-2.046142	1.148520	0.002073	0.000614	-0.004508	1.000000	0.000026	0.000008	-0.000056	0.203533	-0.121018	0.971560	0.978867	0.005065	-0.204433	0.019820	0.992637	0.119492
11131		9.525511	-2.093683	1.150618	-0.002124	0.004723	0.001967	1.000000	-0.000027	0.000059	0.000025	0.203476	-0.121101	0.971562	0.978882	0.005209	-0.204360	0.019687	0.992627	0.119603
11132		9.555282	-2.114653	1.075930	-0.001035	0.004499	-0.000219	1.000000	-0.000013	0.000056	-0.000003	0.203443	-0.121309	0.971543	0.978912	0.006445	-0.204181	0.018507	0.992594	0.120062
11133		9.543402	-2.073421	1.078087	-0.010597	0.001459	-0.004494	1.000000	-0.000132	0.000018	-0.000056	0.202956	-0.121288	0.971647	0.979010	0.006215	-0.203719	0.018670	0.992598	0.120003
11134		9.520154	-2.075012	1.120551	-0.007402	-0.000986	0.001957	1.000000	-0.000093	-0.000012	0.000024	0.202442	-0.121191	0.971766	0.979111	0.005822	-0.203245	0.018974	0.992612	0.119838
11135		9.546872	-2.090080	1.131020	-0.013584	-0.005981	0.007092	1.000000	-0.000170	-0.000075	0.000089	0.202502	-0.121043	0.971772	0.979103	0.006065	-0.203274	0.018711	0.992629	0.119742
11136		9.577602	-2.101582	1.071842	-0.021881	-0.004717	0.005481	1.000000	-0.000274	-0.000059	0.000069	0.202488	-0.120890	0.971794	0.979099	0.005678	-0.203303	0.019060	0.992650	0.119513
11137		9.557594	-2.111292	1.065269	-0.011224	-0.005940	0.005679	1.000000	-0.000140	-0.000074	0.000071	0.202501	-0.120723	0.971812	0.979100	0.005805	-0.203298	0.018901	0.992669	0.119375
11138		9.525450	-2.064807	1.142984	-0.007580	-0.009666	0.003145	1.000000	-0.000095	-0.000121	0.000039	0.202046	-0.120407	0.971946	0.979186	0.005294	-0.202895	0.019284	0.992711	0.118970
11139		9.546683	-2.096108	1.121418	-0.007251	-0.011424	0.002747	1.000000	-0.000091	-0.000143	0.000034	0.201631	-0.120092	0.972071	0.979273	0.005254	-0.202476	0.019208	0.992749	0.118662
11140		9.587097	-2.071073	1.105560	-0.008587	-0.011933	0.006272	1.000000	-0.000107	-0.000149	0.000078	0.201826	-0.119738	0.972075	0.979227	0.004910	-0.202706	0.019499	0.992793	0.118242
11141		9.571693	-2.051529	1.130608	-0.013936	-0.009812	0.014340	1.000000	-0.000174	-0.000123	0.000179	0.202228	-0.119460	0.972025	0.979140	0.004701	-0.203130	0.019697	0.992828	0.117918
11142		9.564749	-2.057789	1.139499	-0.027984	-0.006744	0.012679	1.000000	-0.000350	-0.000084	0.000158	0.202485	-0.119257	0.971997	0.979077	0.004168	-0.203449	0.020211	0.992855	0.117605
11143		9.543932	-2.079440	1.153681	-0.024907	-0.005937	0.008063	1.000000	-0.000311	-0.000074	0.000101	0.202132	-0.118853	0.972120	0.979097	0.001607	-0.203386	0.022611	0.992911	0.116694
11144		9.583942	-2.055917	1.138751	-0.019165	-0.003705	0.010021	1.000000	-0.000240	-0.000046	0.000125	0.202074	-0.118738	0.972146	0.979106	0.001419	-0.203347	0.022765	0.992925	0.116544
11145		9.581507	-2.056053	1.120112	-0.019872	-0.004998	0.007521	1.000000	-0.000248	-0.000062	0.000094	0.202128	-0.118604	0.972151	0.979091	0.001249	-0.203419	0.022912	0.992941	0.116376
11146		9.594947	-2.076830	1.112722	-0.019594	-0.009480	0.000802	1.000000	-0.000245	-0.000119	0.000010	0.202091	-0.118356	0.972189	0.979096	0.001081	-0.203395	0.023022	0.992971	0.116100
11147		9.518870	-2.075344	1.148206	-0.000851	-0.013235	-0.001812	1.000000	-0.000011	-0.000165	-0.000023	0.201947	-0.118039	0.972257	0.979143	0.001770	-0.203163	0.022260	0.993007	0.115934
11148		9.577764	-2.038242	1.160693	-0.008759	-0.009570	0.001721	1.000000	-0.000109	-0.000120	0.000022	0.201707	-0.117769	0.972340	0.979197	0.001857	-0.202905	0.022091	0.993039	0.115694
11149		9.655213	-2.196856	1.094817	-0.010216	-0.010839	-0.007714	1.000000	-0.000128	-0.000135	-0.000096	0.201398	-0.117467	0.972440	0.979259	0.001712	-0.202603	0.022135	0.993075	0.115375
11150		9.570270	-2.046050	1.211916	-0.007953	-0.009730	-0.009269	1.000000	-0.000099	-0.000122	-0.000116	0.201152	-0.117203	0.972523	0.979311	0.001662	-0.202355	0.022100	0.993107	0.115113
11151		9.487512	-2.071113	1.198662	-0.014701	-0.008255	-0.001284	1.000000	-0.000184	-0.000103	-0.000016	0.200745	-0.116984	0.972634	0.979400	0.001821	-0.201923	0.021850	0.993132	0.114940
11152		9.536618	-2.119430	1.125497	-0.002673	-0.005066	0.005161	1.000000	-0.000033	-0.000063	0.000065	0.200677	-0.116855	0.972663	0.979426	0.002335	-0.201792	0.021309	0.993146	0.114919
11153		9.633826	-2.137720	1.149565	-0.005172	-0.001310	0.001229	1.000000	-0.000065	-0.000016	0.000015	0.200681	-0.116844	0.972664	0.979435	0.002813	-0.201740	0.020836	0.993146	0.115006
11154		9.619186	-2.105022	1.157180	0.014742	0.004993	0.000800	1.000000	0.000184	0.000062	0.000010	0.200484	-0.116948	0.972692	0.979487	0.003357	-0.201481	0.020297	0.993132	0.115222
11155		9.602747	-2.010439	1.169317	-0.000731	0.001835	0.005899	1.000000	-0.000009	0.000023	0.000074	0.200762	-0.117002	0.972628	0.979440	0.003915	-0.201697	0.019792	0.993124	0.115382
11156		9.542373	-2.061900	1.135582	-0.011117	0.004946	0.019455	1.000000	-0.000139	0.000062	0.000243	0.201144	-0.117142	0.972532	0.979369	0.004369	-0.202031	0.019417	0.993106	0.115605
11157		9.547618	-2.088821	1.104305	0.001127	0.011604	0.019343	1.000000	0.000014	0.000145	0.000242	0.201575	-0.117451	0.972406	0.979293	0.005121	-0.202384	0.018790	0.993066	0.116051
11158		9.559320	-2.038729	1.125331	-0.002838	0.012532	0.014699	1.000000	-0.000035	0.000157	0.000184	0.201765	-0.117737	0.972332	0.979256	0.005328	-0.202557	0.018668	0.993031	0.116369
11159		9.580942	-2.026274	1.126998	-0.026245	0.011242	0.010501	1.000000	-0.000328	0.000141	0.000131	0.202095	-0.118023	0.972229	0.979186	0.005320	-0.202895	0.018774	0.992997	0.116641
11160		9.581577	-2.067546	1.145161	-0.012563	0.007056	0.014141	1.000000	-0.000157	0.000088	0.000177	0.202161	-0.118153	0.972199	0.979167	0.005054	-0.202996	0.019071	0.992983	0.116713
11161		9.566175	-2.004238	1.112867	-0.005634	0.008517	0.019743	1.000000	-0.000070	0.000106	0.000247	0.202516	-0.118341	0.972102	0.979094	0.005188	-0.203341	0.019021	0.992959	0.116917
11162		9.533345	-2.025263	1.069724	-0.022797	0.008843	0.017838	1.000000	-0.000285	0.000111	0.000223	0.202877	-0.118540	0.972003	0.979012	0.004886	-0.203744	0.019403	0.992937	0.117043
11163		9.563573	-2.072161	1.094227	-0.019051	0.006294	0.004468	1.000000	-0.000238	0.000079	0.000056	0.202982	-0.118688	0.971963	0.978988	0.004829	-0.203860	0.019502	0.992920	0.117174
11164		9.555941	-2.036866	1.129727	-0.002577	0.000137	-0.003751	1.000000	-0.000032	0.000002	-0.000047	0.202570	-0.118648	0.972053	0.979073	0.004749	-0.203454	0.019523	0.992925	0.117127
11165		9.557979	-2.014160	1.126048	-0.007972	-0.007102	-0.006593	1.000000	-0.000100	-0.000089	-0.000082	0.202436	-0.118477	0.972102	0.979109	0.005102	-0.203273	0.019124	0.992944	0.117034
11166		9.575631	-2.038201	1.111463	-0.018584	-0.010449	-0.002799	1.000000	-0.000232	-0.000131	-0.000035	0.202230	-0.118175	0.972182	0.979144	0.004652	-0.203112	0.019480	0.992982	0.116651
11167		9.572663	-2.081410	1.113416	-0.019141	-0.007998	-0.001852	1.000000	-0.000239	-0.000100	-0.000023	0.201858	-0.117965	0.972285	0.979217	0.004370	-0.202767	0.019670	0.993008	0.116396
11168		9.549241	-2.059256	1.135011	-0.007932	-0.004396	-0.000255	1.000000	-0.000099	-0.000055	-0.000003	0.201678	-0.117835	0.972338	0.979256	0.004428	-0.202577	0.019565	0.993023	0.116283
11169		9.573000	-2.032761	1.152269	-0.016534	-0.000588	-0.000002	1.000000	-0.000207	-0.000007	-0.000000	0.201519	-0.117870	0.972367	0.979306	0.005271	-0.202318	0.018722	0.993015	0.116493
11170		9.581027	-2.092965	1.134768	-0.017489	-0.002607	-0.001173	1.000000	-0.000219	-0.000033	-0.000015	0.201407	-0.117780	0.972401	0.979326	0.005103	-0.202224	0.018856	0.993027	0.116373
11171		9.587052	-2.101138	1.142957	-0.009295	-0.002166	-0.001946	1.000000	-0.000116	-0.000027	-0.000024	0.201002	-0.117705	0.972493	0.979410	0.005078	-0.201817	0.018817	0.993036	0.116302
11172		9.568979	-2.062625	1.156262	-0.002977	-0.002394	-0.000948	1.000000	-0.000037	-0.000030	-0.000012	0.200973	-0.117614	0.972510	0.979417	0.005131	-0.201780	0.018743	0.993046	0.116224
11173		9.537710	-2.030165	1.193623	-0.015153	0.000541	0.005821	1.000000	-0.000189	0.000007	0.000073	0.200956	-0.117590	0.972517	0.979410	0.004544	-0.201831	0.019314	0.993052	0.116082
11174		9.650197	-2.193297	1.124183	-0.010840	0.001528	-0.001681	1.000000	-0.000135	0.000019	-0.000021	0.200745	-0.117565	0.972564	0.979441	0.003905	-0.201693	0.019914	0.993058	0.115932
11175		9.657481	-2.081389	1.175735	0.006010	0.001026	-0.004311	1.000000	0.000075	0.000013	-0.000054	0.200630	-0.117570	0.972587	0.979468	0.004042	-0.201561	0.019766	0.993056	0.115967
11176		9.553531	-1.993819	1.226545	-0.023614	0.005981	0.012552	1.000000	-0.000295	0.000075	0.000157	0.200895	-0.117700	0.972516	0.979407	0.003793	-0.201860	0.020071	0.993042	0.116039
11177		9.462351	-2.076018	1.186960	-0.006916	0.014162	0.025848	1.000000	-0.000086	0.000177	0.000323	0.201394	-0.118019	0.972374	0.979303	0.003819	-0.202365	0.020169	0.993004	0.116346
11178		9.503283	-2.106661	1.151851	-0.000249	0.013769	0.017713	1.000000	-0.000003	0.000172	0.000221	0.201854	-0.118348	0.972239	0.979209	0.004003	-0.202814	0.020111	0.992964	0.116695
11179		9.606295	-2.040442	1.170616	-0.001559	0.017100	0.001577	1.000000	-0.000019	0.000214	0.000020	0.201921	-0.118780	0.972173	0.979201	0.004396	-0.202844	0.019820	0.992911	0.117197
11180		9.657352	-2.031993	1.140518	-0.017390	0.017131	0.006310	1.000000	-0.000217	0.000214	0.000079	0.202029	-0.119201	0.972099	0.979173	0.004214	-0.202982	0.020099	0.992861	0.117570
11181		9.566317	-2.039208	1.166002	-0.004855	0.014795	0.021343	1.000000	-0.000061	0.000185	0.000267	0.202435	-0.119551	0.971971	0.979090	0.004361	-0.203381	0.020076	0.992818	0.117934
11182		9.502694	-2.040485	1.120243	0.002557	0.014349	0.020150	1.000000	0.000032	0.000179	0.000252	0.202802	-0.119898	0.971852	0.979020	0.004808	-0.203705	0.019751	0.992775	0.118358
11183		9.512960	-2.060447	1.101512	-0.010635	0.009391	0.007331	1.000000	-0.000133	0.000117	0.000092	0.202656	-0.120108	0.971856	0.979051	0.004816	-0.203560	0.019768	0.992749	0.118568
11184		9.548655	-2.064778	1.097702	-0.010625	0.005537	-0.002523	1.000000	-0.000133	0.000069	-0.000032	0.202446	-0.120232	0.971885	0.979091	0.004679	-0.203369	0.019904	0.992735	0.118665
11185		9.573271	-2.027453	1.135867	0.001360	0.001788	0.003609	1.000000	0.000017	0.000022	0.000045	0.202478	-0.120277	0.971872	0.979094	0.005155	-0.203344	0.019448	0.992727	0.118806
11186		9.568161	-2.010085	1.144978	-0.007261	-0.003282	0.010187	1.000000	-0.000091	-0.000041	0.000127	0.202596	-0.120168	0.971861	0.979069	0.005117	-0.203466	0.019477	0.992740	0.118690
11187		9.548905	-2.058402	1.115054	-0.022391	-0.005817	0.007574	1.000000	-0.000280	-0.000073	0.000095	0.202755	-0.119997	0.971849	0.979025	0.004565	-0.203689	0.020006	0.992764	0.118406
11188		9.553628	-2.079082	1.103090	-0.022111	-0.005573	0.000521	1.000000	-0.000276	-0.000070	0.000007	0.202599	-0.119860	0.971899	0.979059	0.004578	-0.203527	0.019946	0.992780	0.118277
11189		9.555952	-2.057610	1.138558	-0.004152	-0.008398	-0.001302	1.000000	-0.000052	-0.000105	-0.000016	0.202436	-0.119639	0.971960	0.979095	0.004638	-0.203351	0.019821	0.992807	0.118077
11190		9.572495	-1.995823	1.189760	-0.009032	-0.013560	0.002527	1.000000	-0.000113	-0.000169	0.000032	0.202461	-0.119299	0.971997	0.979096	0.004883	-0.203340	0.019512	0.992846	0.117794
11191		9.576810	-2.026976	1.197612	-0.019627	-0.014047	0.004746	1.000000	-0.000245	-0.000176	0.000059	0.202601	-0.118951	0.972010	0.979068	0.004895	-0.203473	0.019446	0.992888	0.117453
11192		9.566237	-2.050138	1.151039	-0.023737	-0.010870	0.003493	1.000000	-0.000297	-0.000136	0.000044	0.202562	-0.118653	0.972055	0.979067	0.004375	-0.203489	0.019892	0.992926	0.117055
11193		9.532332	-2.051047	1.169526	-0.022199	-0.005854	0.004854	1.000000	-0.000277	-0.000073	0.000061	0.202517	-0.118499	0.972083	0.979074	0.004207	-0.203460	0.020020	0.992945	0.116871
11194		9.547640	-2.074661	1.179303	-0.017431	-0.001730	0.003908	1.000000	-0.000218	-0.000022	0.000049	0.202451	-0.118454	0.972102	0.979088	0.004174	-0.203397	0.020035	0.992951	0.116822
11195		9.563795	-2.062305	1.189626	-0.011597	-0.003264	-0.000375	1.000000	-0.000145	-0.000041	-0.000005	0.202159	-0.118354	0.972175	0.979148	0.004123	-0.203107	0.020030	0.992963	0.116719
11196		9.593119	-2.068183	1.154559	-0.015982	-0.004175	-0.004432	1.000000	-0.000200	-0.000052	-0.000055	0.201937	-0.118235	0.972236	0.979189	0.003842	-0.202914	0.020256	0.992978	0.116551
11197		9.588596	-2.073178	1.140719	-0.014360	-0.006345	-0.001865	1.000000	-0.000179	-0.000079	-0.000023	0.201684	-0.118030	0.972313	0.979224	0.002946	-0.202760	0.021068	0.993006	0.116172
11198		9.506186	-2.015040	1.170617	-0.010923	-0.003429	0.002938	1.000000	-0.000137	-0.000043	0.000037	0.201672	-0.117940	0.972326	0.979228	0.003005	-0.202739	0.020989	0.993016	0.116097
11199		9.603861	-2.121629	1.127804	-0.027231	0.000083	0.005794	1.000000	-0.000340	0.000001	0.000072	0.201677	-0.117934	0.972326	0.979220	0.002663	-0.202783	0.021326	0.993018	0.116021
11200		9.618213	-2.131207	1.140379	-0.014399	-0.003087	-0.001354	1.000000	-0.000180	-0.000039	-0.000017	0.201498	-0.117845	0.972374	0.979254	0.002504	-0.202620	0.021443	0.993029	0.115905
11201		9.544750	-1.990045	1.177683	-0.026152	-0.002231	0.006607	1.000000	-0.000327	-0.000028	0.000083	0.201610	-0.117793	0.972357	0.979231	0.002487	-0.202734	0.021463	0.993035	0.115847
11202		9.472197	-2.060152	1.162616	-0.017039	-0.000941	0.021454	1.000000	-0.000213	-0.000012	0.000268	0.201936	-0.117758	0.972294	0.979160	0.002344	-0.203078	0.021635	0.993040	0.115777
11203		9.522185	-2.066916	1.149174	-0.022820	0.000868	0.021456	1.000000	-0.000285	0.000011	0.000268	0.202166	-0.117756	0.972246	0.979096	0.001655	-0.203390	0.022341	0.993041	0.115629
11204		9.595264	-2.129105	1.112197	-0.018536	0.004590	0.005076	1.000000	-0.000232	0.000057	0.000063	0.202072	-0.117852	0.972254	0.979111	0.001439	-0.203323	0.022563	0.993030	0.115681
11205		9.613873	-2.036300	1.142998	-0.017635	0.001823	0.002906	1.000000	-0.000220	0.000023	0.000036	0.201979	-0.117888	0.972269	0.979126	0.001268	-0.203249	0.022728	0.993026	0.115683
11206		9.573799	-2.005634	1.175994	-0.027878	0.001560	0.013320	1.000000	-0.000348	0.000019	0.000167	0.202303	-0.117923	0.972197	0.979049	0.000888	-0.203622	0.023148	0.993022	0.115632
11207		9.527270	-2.090440	1.131897	-0.029160	-0.002166	0.020000	1.000000	-0.000365	-0.000027	0.000250	0.202679	-0.117860	0.972127	0.978962	0.000496	-0.204044	0.023567	0.993030	0.115481
11208		9.533393	-2.140134	1.115038	-0.011432	-0.008178	0.005111	1.000000	-0.000143	-0.000102	0.000064	0.202560	-0.117634	0.972179	0.978982	0.000252	-0.203947	0.023746	0.993057	0.115213
11209		9.566987	-2.078801	1.135801	-0.010822	-0.011549	-0.007318	1.000000	-0.000135	-0.000144	-0.000091	0.202427	-0.117354	0.972240	0.979015	0.000418	-0.203787	0.023509	0.993090	0.114976
11210		9.573701	-2.038198	1.184190	-0.016395	-0.015337	0.000369	1.000000	-0.000205	-0.000192	0.000005	0.202263	-0.116955	0.972323	0.979043	0.000076	-0.203652	0.023744	0.993137	0.114520
11211		9.568619	-2.080572	1.208352	-0.006181	-0.013603	0.010784	1.000000	-0.000077	-0.000170	0.000135	0.202522	-0.116616	0.972309	0.978994	0.000192	-0.203891	0.023590	0.993177	0.114205
11212		9.554734	-2.063297	1.170177	-0.008244	-0.007926	0.006316	1.000000	-0.000103	-0.000099	0.000079	0.202622	-0.116419	0.972312	0.978978	0.000368	-0.203966	0.023387	0.993200	0.114046
11213		9.567907	-2.084198	1.163042	-0.021331	-0.003182	0.003906	1.000000	-0.000267	-0.000040	0.000049	0.202532	-0.116323	0.972343	0.978985	-0.000161	-0.203934	0.023878	0.993211	0.113846
11214		9.576335	-2.085777	1.166652	-0.008155	0.001075	0.003675	1.000000	-0.000102	0.000013	0.000046	0.202666	-0.116354	0.972311	0.978961	0.000045	-0.204047	0.023697	0.993208	0.113915
11215		9.590342	-2.047147	1.183249	-0.004057	0.000463	0.007633	1.000000	-0.000051	0.000006	0.000095	0.202712	-0.116369	0.972299	0.978964	0.000580	-0.204032	0.023179	0.993206	0.114038
11216		9.588808	-2.059717	1.164003	-0.004850	-0.000415	0.007207	1.000000	-0.000061	-0.000005	0.000090	0.202850	-0.116352	0.972273	0.978933	0.000501	-0.204180	0.023270	0.993208	0.114003
11217		9.536806	-2.060390	1.135960	-0.015650	0.002656	0.008450	1.000000	-0.000196	0.000033	0.000106	0.202964	-0.116411	0.972242	0.978901	0.000149	-0.204336	0.023642	0.993201	0.113985
11218		9.535021	-2.073714	1.117359	-0.015732	0.007730	0.010274	1.000000	-0.000197	0.000097	0.000128	0.203015	-0.116594	0.972209	0.978881	-0.000206	-0.204433	0.024035	0.993180	0.114090
11219		9.565820	-2.086042	1.141445	-0.012204	0.005546	0.013261	1.000000	-0.000153	0.000069	0.000166	0.203197	-0.116726	0.972155	0.978838	-0.000340	-0.204635	0.024216	0.993164	0.114187
11220		9.589024	-2.062515	1.161070	-0.007113	0.004591	0.007723	1.000000	-0.000089	0.000057	0.000097	0.203113	-0.116841	0.972159	0.978863	-0.000024	-0.204517	0.023919	0.993151	0.114366
11221		9.574454	-2.093270	1.082548	-0.011141	-0.002670	0.007162	1.000000	-0.000139	-0.000033	0.000090	0.203120	-0.116778	0.972165	0.978867	0.000190	-0.204497	0.023696	0.993158	0.114348
11222		9.571741	-2.078641	1.107393	-0.002162	-0.006125	0.003390	1.000000	-0.000027	-0.000077	0.000042	0.203121	-0.116631	0.972183	0.978875	0.000502	-0.204459	0.023358	0.993175	0.114269
11223		9.561714	-2.052747	1.146467	0.008469	-0.008439	0.006331	1.000000	0.000106	-0.000105	0.000079	0.203154	-0.116416	0.972202	0.978883	0.001077	-0.204421	0.022751	0.993200	0.114176
11224		9.555680	-1.997447	1.138500	-0.011398	-0.003417	0.008502	1.000000	-0.000142	-0.000043	0.000106	0.203336	-0.116340	0.972173	0.978849	0.001283	-0.204579	0.022554	0.993209	0.114140
11225		9.627362	-2.176221	1.096400	-0.011198	-0.004628	-0.001425	1.000000	-0.000140	-0.000058	-0.000018	0.203181	-0.116234	0.972218	0.978886	0.001461	-0.204400	0.022338	0.993221	0.114077
11226		9.582383	-2.024250	1.208199	-0.006404	-0.005196	-0.002112	1.000000	-0.000080	-0.000065	-0.000026	0.202808	-0.116109	0.972310	0.978966	0.001496	-0.204018	0.022234	0.993235	0.113970
11227		9.538454	-1.987163	1.208027	-0.024342	0.002232	0.014833	1.000000	-0.000304	0.000028	0.000185	0.203040	-0.116161	0.972256	0.978907	0.001053	-0.204304	0.022708	0.993230	0.113925
11228		9.524688	-2.059623	1.186724	-0.017332	0.011629	0.024309	1.000000	-0.000217	0.000145	0.000304	0.203337	-0.116455	0.972159	0.978835	0.000681	-0.204652	0.023171	0.993196	0.114128
11229		9.571646	-2.122474	1.178010	-0.020138	0.013426	0.010950	1.000000	-0.000252	0.000168	0.000137	0.203359	-0.116788	0.972114	0.978823	0.000434	-0.204710	0.023486	0.993157	0.114403
11230		9.597640	-2.064463	1.176304	-0.004109	0.013954	-0.006178	1.000000	-0.000051	0.000174	-0.000077	0.203036	-0.117143	0.972139	0.978889	0.000431	-0.204393	0.023524	0.993115	0.114758
11231		9.622250	-2.002859	1.198378	-0.012693	0.011779	0.002522	1.000000	-0.000159	0.000147	0.000032	0.202902	-0.117438	0.972131	0.978913	0.000332	-0.204278	0.023667	0.993080	0.115029
11232		9.543523	-2.013421	1.180000	-0.018641	0.012979	0.011174	1.000000	-0.000233	0.000162	0.000140	0.202978	-0.117768	0.972075	0.978890	0.000102	-0.204389	0.023972	0.993041	0.115303
11233		9.529664	-2.131110	1.116851	-0.008244	0.010837	0.005269	1.000000	-0.000103	0.000135	0.000066	0.203052	-0.118039	0.972027	0.978874	0.000130	-0.204466	0.024008	0.993009	0.115572
11234		9.552204	-2.041487	1.103289	-0.006089	0.009887	-0.012195	1.000000	-0.000076	0.000124	-0.000152	0.202647	-0.118289	0.972081	0.978958	0.000142	-0.204063	0.024000	0.992979	0.115829
11235		9.560622	-2.026559	1.151907	-0.021429	0.005644	-0.009623	1.000000	-0.000268	0.000071	-0.000120	0.202203	-0.118430	0.972157	0.979046	-0.000018	-0.203638	0.024134	0.992962	0.115945
11236		9.554519	-2.052678	1.182631	-0.004820	0.001942	-0.003738	1.000000	-0.000060	0.000024	-0.000047	0.201827	-0.118483	0.972228	0.979131	0.000239	-0.203231	0.023847	0.992956	0.116059
11237		9.548666	-2.067933	1.151177	-0.002810	-0.004504	-0.000719	1.000000	-0.000035	-0.000056	-0.000009	0.201702	-0.118374	0.972267	0.979160	0.000347	-0.203090	0.023703	0.992969	0.115977
11238		9.543158	-2.059018	1.140459	-0.015805	-0.003372	-0.005718	1.000000	-0.000198	-0.000042	-0.000071	0.201431	-0.118292	0.972334	0.979217	0.000341	-0.202815	0.023660	0.992979	0.115903
11239		9.563569	-2.098889	1.140559	-0.012528	-0.002811	-0.008836	1.000000	-0.000157	-0.000035	-0.000110	0.201135	-0.118225	0.972403	0.979281	0.000423	-0.202506	0.023530	0.992987	0.115861
11240		9.569531	-2.068698	1.213376	0.000856	-0.002815	-0.005840	1.000000	0.000011	-0.000035	-0.000073	0.200862	-0.118160	0.972467	0.979342	0.000611	-0.202208	0.023298	0.992994	0.115842
11241		9.543149	-2.053486	1.200959	-0.002090	-0.005819	-0.000935	1.000000	-0.000026	-0.000073	-0.000012	0.200669	-0.118023	0.972524	0.979383	0.000621	-0.202009	0.023237	0.993011	0.115714
11242		9.557260	-2.061984	1.172719	-0.015416	-0.006444	0.001931	1.000000	-0.000193	-0.000081	0.000024	0.200458	-0.117867	0.972586	0.979431	0.000729	-0.201780	0.023074	0.993029	0.115588
11243		9.547676	-2.098226	1.165664	-0.022346	-0.001188	0.004711	1.000000	-0.000279	-0.000015	0.000059	0.200476	-0.117837	0.972586	0.979421	0.000490	-0.201826	0.023306	0.993033	0.115511
11244		9.554023	-2.073605	1.174824	-0.012370	0.003249	0.009023	1.000000	-0.000155	0.000041	0.000113	0.200568	-0.117929	0.972556	0.979395	0.000198	-0.201955	0.023624	0.993022	0.115539
11245		9.549094	-2.081516	1.203357	-0.006586	0.002123	0.006777	1.000000	-0.000082	0.000027	0.000085	0.200501	-0.117988	0.972563	0.979412	0.000352	-0.201870	0.023476	0.993015	0.115629
11246		9.563496	-2.031278	1.158761	-0.005583	-0.001693	0.004697	1.000000	-0.000070	-0.000021	0.000059	0.200600	-0.117949	0.972547	0.979397	0.000549	-0.201946	0.023285	0.993020	0.115629
11247		9.574717	-2.073426	1.154433	-0.015580	-0.003566	0.003134	1.000000	-0.000195	-0.000045	0.000039	0.200542	-0.117863	0.972569	0.979410	0.000582	-0.201882	0.023229	0.993030	0.115553
11248		9.551015	-2.076430	1.155535	0.001516	-0.005824	0.002678	1.000000	0.000019	-0.000073	0.000033	0.200423	-0.117726	0.972610	0.979443	0.000927	-0.201719	0.022846	0.993046	0.115492
11249		9.535064	-1.968732	1.170434	-0.002626	-0.004761	0.004474	1.000000	-0.000033	-0.000060	0.000056	0.200344	-0.117619	0.972640	0.979463	0.001065	-0.201620	0.022679	0.993058	0.115417
11250		9.630459	-2.144636	1.124051	-0.008600	-0.010635	-0.000960	1.000000	-0.000107	-0.000133	-0.000012	0.200193	-0.117349	0.972703	0.979509	0.001676	-0.201392	0.022002	0.993089	0.115280
11251		9.594883	-2.006014	1.197144	0.000037	-0.013073	-0.005768	1.000000	0.000000	-0.000163	-0.000072	0.200046	-0.117027	0.972772	0.979546	0.001884	-0.201212	0.021715	0.993127	0.115010
11252		9.497496	-1.997973	1.190646	-0.015853	-0.009015	0.004733	1.000000	-0.000198	-0.000113	0.000059	0.200022	-0.116807	0.972804	0.979555	0.002010	-0.201168	0.021543	0.993153	0.114820
11253		9.515834	-2.075582	1.149110	0.007813	-0.007091	0.010143	1.000000	0.000098	-0.000089	0.000127	0.200203	-0.116631	0.972788	0.979532	0.002667	-0.201271	0.020880	0.993172	0.114778
11254		9.580483	-2.049575	1.173527	0.001653	-0.006141	0.004227	1.000000	0.000021	-0.000077	0.000053	0.200155	-0.116482	0.972816	0.979552	0.003122	-0.201167	0.020395	0.993188	0.114725
11255		9.575976	-2.030783	1.182277	0.004161	-0.004317	-0.002328	1.000000	0.000052	-0.000054	-0.000029	0.199997	-0.116390	0.972859	0.979589	0.003312	-0.200985	0.020171	0.993198	0.114676
11256		9.600717	-1.993757	1.179155	-0.005165	-0.004511	0.004389	1.000000	-0.000065	-0.000056	0.000055	0.200109	-0.116281	0.972849	0.979570	0.003512	-0.201072	0.019965	0.993210	0.114608
11257		9.553208	-1.988344	1.121915	-0.017770	0.000116	0.011770	1.000000	-0.000222	0.000001	0.000147	0.200165	-0.116311	0.972834	0.979547	0.002962	-0.201192	0.020519	0.993208	0.114525
11258		9.538007	-2.128783	1.097420	-0.007568	-0.002706	0.010812	1.000000	-0.000095	-0.000034	0.000135	0.200183	-0.116262	0.972836	0.979544	0.002979	-0.201207	0.020495	0.993214	0.114480
11259		9.542135	-2.013545	1.117381	0.005763	-0.005129	-0.004220	1.000000	0.000072	-0.000064	-0.000053	0.199889	-0.116143	0.972911	0.979616	0.003496	-0.200849	0.019926	0.993226	0.114475
11260		9.564421	-1.983823	1.117593	-0.020759	-0.011813	-0.002371	1.000000	-0.000259	-0.000148	-0.000030	0.199585	-0.115890	0.973003	0.979660	0.002540	-0.200648	0.020782	0.993259	0.114039
11261		9.581569	-2.057687	1.097839	-0.012633	-0.014584	0.002657	1.000000	-0.000158	-0.000182	0.000033	0.199563	-0.115532	0.973050	0.979669	0.002659	-0.200605	0.020589	0.993300	0.113714
11262		9.569221	-2.028756	1.077732	-0.005130	-0.017105	0.008017	1.000000	-0.000064	-0.000214	0.000100	0.199580	-0.115126	0.973095	0.979669	0.002772	-0.200601	0.020397	0.993347	0.113338
11263		9.546959	-2.021973	1.094829	-0.010344	-0.018846	0.003555	1.000000	-0.000129	-0.000236	0.000044	0.199523	-0.114660	0.973162	0.979691	0.003151	-0.200490	0.019922	0.993400	0.112960
11264		9.563130	-2.020939	1.122160	-0.019697	-0.022084	-0.001842	1.000000	-0.000246	-0.000276	-0.000023	0.199298	-0.114126	0.973271	0.979732	0.002796	-0.200293	0.020138	0.993462	0.112370
11265		9.566551	-2.061676	1.107530	-0.014869	-0.026600	-0.000862	1.000000	-0.000186	-0.000333	-0.000011	0.198984	-0.113495	0.973409	0.979793	0.002469	-0.200001	0.020296	0.993535	0.111693
11266		9.560939	-2.015989	1.115935	-0.000215	-0.027118	0.001409	1.000000	-0.000003	-0.000339	0.000018	0.198675	-0.112845	0.973547	0.979864	0.002726	-0.199648	0.019875	0.993609	0.111114
11267		9.568697	-1.966381	1.141181	-0.012910	-0.023996	0.005970	1.000000	-0.000161	-0.000300	0.000075	0.198605	-0.112258	0.973629	0.979881	0.002734	-0.199565	0.019741	0.993675	0.110542
11268		9.566672	-2.014303	1.114974	-0.036676	-0.018980	0.007459	1.000000	-0.000458	-0.000237	0.000093	0.198525	-0.111808	0.973697	0.979885	0.002061	-0.199550	0.020304	0.993728	0.109968
11269		9.557514	-2.075996	1.122571	-0.021845	-0.014843	0.003047	1.000000	-0.000273	-0.000186	0.000038	0.198518	-0.111450	0.973740	0.979881	0.001722	-0.199574	0.020566	0.993768	0.109550
11270		9.545862	-2.034446	1.185578	-0.008180	-0.015966	-0.000332	1.000000	-0.000102	-0.000200	-0.000004	0.198489	-0.111049	0.973792	0.979894	0.001946	-0.199511	0.020260	0.993813	0.109203
11271		9.595785	-2.021398	1.130683	-0.016386	-0.016773	-0.001535	1.000000	-0.000205	-0.000210	-0.000019	0.198415	-0.110624	0.973855	0.979915	0.002165	-0.199404	0.019951	0.993860	0.108832
11272		9.630146	-2.095908	1.118816	-0.022802	-0.015405	0.001095	1.000000	-0.000285	-0.000193	0.000014	0.198297	-0.110255	0.973921	0.979932	0.001740	-0.199324	0.020282	0.993902	0.108388
11273		9.570820	-2.095296	1.122874	0.006681	-0.016061	0.004877	1.000000	0.000084	-0.000201	0.000061	0.198345	-0.109873	0.973954	0.979931	0.002087	-0.199326	0.019868	0.993943	0.108082
11274		9.536631	-1.924209	1.197582	-0.003564	-0.012131	0.009426	1.000000	-0.000045	-0.000152	0.000118	0.198495	-0.109594	0.973955	0.979901	0.002096	-0.199471	0.019819	0.993974	0.107808
11275		9.640100	-2.187791	1.124319	-0.018525	-0.014227	0.003585	1.000000	-0.000232	-0.000178	0.000045	0.198403	-0.109260	0.974012	0.979916	0.001805	-0.199403	0.020029	0.994012	0.107424
11276		9.622369	-1.990755	1.149421	-0.011396	-0.008258	-0.001205	1.000000	-0.000142	-0.000103	-0.000015	0.198316	-0.109066	0.974051	0.979936	0.001900	-0.199301	0.019887	0.994033	0.107254
11277		9.522338	-2.006695	1.147209	-0.022020	0.002611	0.019347	1.000000	-0.000275	0.000033	0.000242	0.198644	-0.109151	0.973975	0.979863	0.001592	-0.199667	0.020243	0.994024	0.107269
11278		9.553671	-2.048422	1.124723	-0.002899	0.005493	0.028327	1.000000	-0.000036	0.000069	0.000354	0.199137	-0.109313	0.973856	0.979761	0.001605	-0.200165	0.020317	0.994006	0.107420
11279		9.602865	-2.066291	1.133521	-0.018633	0.004271	0.013321	1.000000	-0.000233	0.000053	0.000167	0.199354	-0.109444	0.973797	0.979707	0.001196	-0.200430	0.020771	0.993992	0.107461
11280		9.628386	-2.081797	1.104428	-0.003130	0.001949	-0.000516	1.000000	-0.000039	0.000024	-0.000006	0.199246	-0.109507	0.973812	0.979734	0.001412	-0.200299	0.020559	0.993985	0.107569
11281		9.604522	-1.998039	1.135836	0.012688	-0.000162	0.003896	1.000000	0.000159	-0.000002	0.000049	0.199231	-0.109512	0.973814	0.979753	0.002212	-0.200198	0.019770	0.993983	0.107735
11282		9.548326	-1.955044	1.140955	0.000063	0.002302	0.014370	1.000000	0.000001	0.000029	0.000180	0.199373	-0.109605	0.973775	0.979725	0.002306	-0.200331	0.019711	0.993973	0.107843
11283		9.568583	-2.062983	1.072168	-0.005439	0.003075	0.011797	1.000000	-0.000068	0.000038	0.000147	0.199561	-0.109700	0.973726	0.979688	0.002376	-0.200515	0.019683	0.993962	0.107946
11284		9.632507	-2.036327	1.058355	0.001861	0.005761	0.000046	1.000000	0.000023	0.000072	0.000001	0.199424	-0.109866	0.973735	0.979721	0.002664	-0.200349	0.019417	0.993943	0.108170
11285		9.581105	-1.984791	1.139830	0.002841	0.001949	-0.002048	1.000000	0.000036	0.000024	-0.000026	0.199308	-0.109932	0.973751	0.979750	0.002976	-0.200200	0.019111	0.993935	0.108299
11286		9.559803	-1.941518	1.163143	0.004703	0.000905	0.004902	1.000000	0.000059	0.000011	0.000061	0.199265	-0.109980	0.973754	0.979766	0.003319	-0.200121	0.018778	0.993928	0.108416
11287		9.579815	-1.985742	1.100607	-0.013848	0.005114	0.008152	1.000000	-0.000173	0.000064	0.000102	0.199424	-0.110109	0.973707	0.979734	0.003413	-0.200273	0.018729	0.993914	0.108558
11288		9.603512	-2.047671	1.092919	-0.017370	0.012730	0.002741	1.000000	-0.000217	0.000159	0.000034	0.199320	-0.110449	0.973690	0.979750	0.003190	-0.200199	0.019006	0.993877	0.108849
11289		9.588308	-2.001916	1.106722	-0.004680	0.016112	-0.000792	1.000000	-0.000058	0.000201	-0.000010	0.199233	-0.110866	0.973660	0.979768	0.003293	-0.200108	0.018979	0.993830	0.109279
11290		9.568385	-1.972632	1.170116	-0.003607	0.011235	-0.002772	1.000000	-0.000045	0.000140	-0.000035	0.199030	-0.111176	0.973667	0.979810	0.003373	-0.199901	0.018940	0.993795	0.109603
11291		9.572925	-2.003304	1.118701	-0.008462	0.004550	-0.004543	1.000000	-0.000106	0.000057	-0.000057	0.198743	-0.111329	0.973708	0.979864	0.003137	-0.199641	0.019171	0.993779	0.109711
11292		9.546736	-2.024909	1.083531	-0.012352	0.003818	-0.006803	1.000000	-0.000154	0.000048	-0.000085	0.198364	-0.111451	0.973771	0.979940	0.003062	-0.199270	0.019227	0.993765	0.109823
11293		9.564879	-2.038467	1.090750	-0.017084	0.009121	-0.002658	1.000000	-0.000214	0.000114	-0.000033	0.198117	-0.111705	0.973792	0.979984	0.002794	-0.199056	0.019515	0.993738	0.110022
11294		9.579501	-2.024421	1.127510	-0.016515	0.007124	0.005757	1.000000	-0.000206	0.000089	0.000072	0.198155	-0.111900	0.973762	0.979973	0.002662	-0.199113	0.019689	0.993716	0.110187
11295		9.565360	-2.031230	1.111676	-0.018691	0.005664	0.008900	1.000000	-0.000234	0.000071	0.000111	0.198288	-0.112046	0.973718	0.979945	0.002671	-0.199248	0.019724	0.993699	0.110329
11296		9.589528	-2.057494	1.063119	-0.018110	0.001418	0.006588	1.000000	-0.000226	0.000018	0.000082	0.198316	-0.112084	0.973708	0.979944	0.002918	-0.199250	0.019492	0.993694	0.110415
11297		9.589682	-2.035677	1.084364	-0.018292	0.000296	0.005824	1.000000	-0.000229	0.000004	0.000073	0.198297	-0.112111	0.973709	0.979946	0.002815	-0.199243	0.019597	0.993692	0.110421
11298		9.562419	-2.011033	1.115703	-0.001027	-0.001908	0.012533	1.000000	-0.000013	-0.000024	0.000157	0.198512	-0.112072	0.973670	0.979909	0.003181	-0.199418	0.019252	0.993695	0.110452
11299		9.521376	-1.905944	1.159060	-0.009910	-0.001352	0.015222	1.000000	-0.000124	-0.000017	0.000190	0.198744	-0.112062	0.973624	0.979863	0.003220	-0.199647	0.019238	0.993696	0.110445
11300		9.647233	-2.095605	1.069763	-0.025338	-0.002043	0.010495	1.000000	-0.000317	-0.000026	0.000131	0.198937	-0.112036	0.973587	0.979813	0.002718	-0.199897	0.019750	0.993700	0.110315
11301		9.620945	-2.045643	1.122223	0.006701	-0.007112	-0.005070	1.000000	0.000084	-0.000089	-0.000063	0.198738	-0.111875	0.973646	0.979865	0.003230	-0.199636	0.019190	0.993717	0.110265
11302		9.500006	-1.891900	1.196060	-0.015887	-0.002885	0.003815	1.000000	-0.000199	-0.000036	0.000048	0.198752	-0.111824	0.973649	0.979860	0.003106	-0.199663	0.019303	0.993723	0.110189
11303		9.497255	-1.977729	1.150062	-0.016166	0.001128	0.018650	1.000000	-0.000202	0.000014	0.000233	0.198996	-0.111903	0.973590	0.979799	0.002584	-0.199968	0.019862	0.993716	0.110157
11304		9.571669	-2.068344	1.146168	-0.017003	0.005630	0.012121	1.000000	-0.000213	0.000070	0.000152	0.199086	-0.112067	0.973553	0.979779	0.002533	-0.200067	0.019955	0.993697	0.110305
11305		9.612295	-2.080911	1.110413	-0.009006	0.007000	-0.003522	1.000000	-0.000113	0.000088	-0.000044	0.198782	-0.112274	0.973591	0.979841	0.002545	-0.199764	0.019951	0.993674	0.110517
11306		9.621065	-1.994563	1.144764	0.002753	0.003728	-0.004375	1.000000	0.000034	0.000047	-0.000055	0.198657	-0.112399	0.973603	0.979866	0.002553	-0.199640	0.019954	0.993660	0.110643
11307		9.617186	-1.990079	1.152688	-0.004130	0.001476	0.011253	1.000000	-0.000052	0.000018	0.000141	0.198682	-0.112482	0.973588	0.979862	0.002616	-0.199660	0.019911	0.993650	0.110736
11308		9.524454	-2.006416	1.116382	-0.026249	0.008321	0.021030	1.000000	-0.000328	0.000104	0.000263	0.199027	-0.112731	0.973489	0.979778	0.002013	-0.200079	0.020595	0.993624	0.110852
11309		9.565434	-2.098587	1.071280	-0.038801	0.013586	0.016262	1.000000	-0.000485	0.000170	0.000203	0.199246	-0.113085	0.973403	0.979719	0.001437	-0.200372	0.021261	0.993584	0.111078
11310		9.588885	-2.101369	1.110036	-0.022459	0.010014	0.005804	1.000000	-0.000281	0.000125	0.000073	0.199283	-0.113359	0.973363	0.979704	0.001155	-0.200447	0.021598	0.993553	0.111288
11311		9.584962	-2.012084	1.146829	-0.011983	0.002536	0.005857	1.000000	-0.000150	0.000032	0.000073	0.199288	-0.113450	0.973351	0.979700	0.001052	-0.200466	0.021719	0.993543	0.111357
11312		9.582365	-2.011389	1.129581	-0.012635	-0.004050	0.013080	1.000000	-0.000158	-0.000051	0.000164	0.199474	-0.113379	0.973322	0.979660	0.000953	-0.200662	0.021823	0.993551	0.111263
11313		9.572610	-2.038141	1.101516	-0.015997	-0.001414	0.013141	1.000000	-0.000200	-0.000018	0.000164	0.199639	-0.113368	0.973289	0.979626	0.000930	-0.200831	0.021862	0.993553	0.111244
11314		9.566296	-2.032365	1.091851	-0.009926	0.002196	0.007824	1.000000	-0.000124	0.000027	0.000098	0.199596	-0.113460	0.973287	0.979633	0.000869	-0.200796	0.021936	0.993542	0.111323
11315		9.565145	-2.007763	1.137877	-0.005061	0.001964	-0.000909	1.000000	-0.000063	0.000025	-0.000011	0.199503	-0.113545	0.973296	0.979649	0.000777	-0.200715	0.022034	0.993533	0.111390
11316		9.582421	-1.983286	1.128437	-0.008238	-0.003318	-0.003954	1.000000	-0.000103	-0.000041	-0.000049	0.199253	-0.113504	0.973353	0.979697	0.000582	-0.200484	0.022189	0.993537	0.111315
11317		9.616596	-2.020944	1.080029	-0.013600	-0.004995	0.001687	1.000000	-0.000170	-0.000062	0.000021	0.199196	-0.113405	0.973376	0.979708	0.000515	-0.200432	0.022229	0.993549	0.111206
11318		9.582273	-2.032071	1.121352	0.003225	-0.005558	-0.002164	1.000000	0.000040	-0.000069	-0.000027	0.198983	-0.113299	0.973432	0.979758	0.000772	-0.200186	0.021929	0.993561	0.111159
11319		9.539029	-1.954970	1.147282	-0.001073	-0.004173	-0.001864	1.000000	-0.000013	-0.000052	-0.000023	0.198897	-0.113220	0.973458	0.979779	0.000942	-0.200079	0.021736	0.993570	0.111118
11320		9.522929	-1.992140	1.152076	-0.019479	-0.002477	-0.004077	1.000000	-0.000243	-0.000031	-0.000051	0.198672	-0.113187	0.973508	0.979819	0.000635	-0.199887	0.022007	0.993574	0.111029
11321		9.571581	-2.038237	1.117611	-0.019399	0.000420	-0.005627	1.000000	-0.000242	0.000005	-0.000070	0.198314	-0.113243	0.973575	0.979882	0.000159	-0.199580	0.022446	0.993567	0.110996
11322		9.589206	-2.063180	1.144183	-0.006504	-0.000481	-0.005975	1.000000	-0.000081	-0.000006	-0.000075	0.198040	-0.113272	0.973627	0.979934	0.000023	-0.199320	0.022555	0.993564	0.111004
11323		9.557058	-2.026260	1.166525	-0.011073	-0.002401	-0.007109	1.000000	-0.000138	-0.000030	-0.000089	0.197723	-0.113249	0.973694	0.979995	-0.000153	-0.199021	0.022687	0.993567	0.110953
11324		9.520150	-2.031810	1.150963	-0.010297	-0.007661	-0.002025	1.000000	-0.000129	-0.000096	-0.000025	0.197562	-0.113078	0.973747	0.980031	-0.000047	-0.198842	0.022531	0.993586	0.110810
11325		9.564140	-2.034991	1.108038	-0.021141	-0.000604	0.001401	1.000000	-0.000264	-0.000008	0.000018	0.197491	-0.113076	0.973761	0.980044	-0.000121	-0.198780	0.022595	0.993586	0.110795
11326		9.660753	-2.202082	1.053567	-0.010933	-0.006698	-0.003895	1.000000	-0.000137	-0.000084	-0.000049	0.197270	-0.112942	0.973822	0.980087	-0.000264	-0.198570	0.022684	0.993602	0.110640
11327		9.562392	-2.006798	1.174003	0.007888	-0.010485	-0.004261	1.000000	0.000099	-0.000131	-0.000053	0.196970	-0.112713	0.973909	0.980158	0.000129	-0.198219	0.022216	0.993628	0.110502
11328		9.456750	-1.974977	1.186120	-0.018015	-0.010840	0.013203	1.000000	-0.000225	-0.000136	0.000165	0.197188	-0.112472	0.973893	0.980110	-0.000065	-0.198455	0.022384	0.993655	0.110222
11329		9.517493	-2.057698	1.101349	-0.020022	-0.002882	0.023231	1.000000	-0.000250	-0.000036	0.000290	0.197679	-0.112420	0.973799	0.980007	-0.000185	-0.198961	0.022548	0.993661	0.110136
11330		9.599979	-2.125298	1.082248	-0.017979	0.002175	0.019101	1.000000	-0.000225	0.000027	0.000239	0.198076	-0.112500	0.973709	0.979921	-0.000404	-0.199386	0.022825	0.993652	0.110161
11331		9.634318	-1.997528	1.134008	-0.004675	0.002424	0.016732	1.000000	-0.000058	0.000030	0.000209	0.198351	-0.112590	0.973643	0.979866	-0.000303	-0.199654	0.022774	0.993641	0.110263
11332		9.597275	-1.961815	1.163964	-0.018520	-0.003332	0.023442	1.000000	-0.000231	-0.000042	0.000293	0.198790	-0.112538	0.973559	0.979773	-0.000469	-0.200113	0.022977	0.993647	0.110169
11333		9.577504	-1.989764	1.090314	-0.023005	-0.005223	0.029643	1.000000	-0.000288	-0.000065	0.000371	0.199463	-0.112428	0.973434	0.979631	-0.000635	-0.200806	0.023195	0.993660	0.110012
11334		9.490854	-2.018387	1.100991	-0.019478	-0.001342	0.024263	1.000000	-0.000243	-0.000017	0.000303	0.199934	-0.112418	0.973339	0.979531	-0.000729	-0.201290	0.023338	0.993661	0.109971
11335		9.545288	-2.006352	1.101483	-0.011205	-0.005268	0.011879	1.000000	-0.000140	-0.000066	0.000148	0.200153	-0.112305	0.973307	0.979489	-0.000635	-0.201498	0.023248	0.993674	0.109874
11336		9.596198	-1.997717	1.129116	-0.009346	-0.012878	0.000283	1.000000	-0.000117	-0.000161	0.000004	0.200041	-0.112000	0.973365	0.979517	-0.000461	-0.201359	0.023001	0.993708	0.109614
11337		9.586548	-1.970664	1.125892	-0.013217	-0.020075	0.000577	1.000000	-0.000165	-0.000251	0.000007	0.199934	-0.111530	0.973441	0.979542	-0.000467	-0.201241	0.022899	0.993761	0.109155
11338		9.573402	-2.000948	1.121856	-0.006039	-0.021667	0.004863	1.000000	-0.000075	-0.000271	0.000061	0.199962	-0.111013	0.973494	0.979542	-0.000319	-0.201240	0.022651	0.993819	0.108679
11339		9.552243	-2.019153	1.092655	-0.006627	-0.019247	0.002221	1.000000	-0.000083	-0.000241	0.000028	0.199855	-0.110577	0.973566	0.979565	-0.000349	-0.201126	0.022580	0.993867	0.108248
11340		9.560090	-2.042872	1.134456	-0.005695	-0.015829	-0.004673	1.000000	-0.000071	-0.000198	-0.000058	0.199567	-0.110216	0.973666	0.979629	-0.000222	-0.200814	0.022349	0.993908	0.107927
11341		9.606718	-2.010724	1.131225	-0.001121	-0.012474	-0.007987	1.000000	-0.000014	-0.000156	-0.000100	0.199218	-0.109943	0.973768	0.979705	-0.000116	-0.200446	0.022150	0.993938	0.107689
11342		9.617459	-2.011651	1.108178	-0.010100	-0.016627	-0.005011	1.000000	-0.000126	-0.000208	-0.000063	0.198932	-0.109563	0.973870	0.979765	-0.000151	-0.200153	0.022077	0.993980	0.107316
11343		9.592390	-2.059765	1.126126	-0.007445	-0.015426	-0.002070	1.000000	-0.000093	-0.000193	-0.000026	0.198744	-0.109215	0.973947	0.979804	-0.000168	-0.199958	0.022002	0.994018	0.106976
11344		9.546227	-2.076892	1.125081	0.001494	-0.014171	0.000167	1.000000	0.000019	-0.000177	0.000002	0.198588	-0.108902	0.974014	0.979842	0.000041	-0.199772	0.021715	0.994052	0.106715
11345		9.564396	-2.029612	1.135788	-0.001719	-0.008617	0.002360	1.000000	-0.000021	-0.000108	0.000030	0.198456	-0.108735	0.974060	0.979872	0.000106	-0.199628	0.021603	0.994071	0.106567
11346		9.596509	-2.041177	1.092752	-0.011926	-0.001801	0.005497	1.000000	-0.000149	-0.000023	0.000069	0.198431	-0.108732	0.974065	0.979874	-0.000004	-0.199615	0.021708	0.994071	0.106543
11347		9.599110	-2.060368	1.105082	-0.013664	-0.002120	0.010314	1.000000	-0.000171	-0.000026	0.000129	0.198552	-0.108713	0.974042	0.979847	-0.000125	-0.199749	0.021837	0.994073	0.106498
11348		9.565615	-2.087582	1.080088	-0.000253	-0.002942	0.007995	1.000000	-0.000003	-0.000037	0.000100	0.198666	-0.108671	0.974024	0.979829	0.000090	-0.199839	0.021629	0.994078	0.106497
11349		9.551072	-2.042884	1.090504	0.004210	-0.008993	0.005104	1.000000	0.000053	-0.000112	0.000064	0.198684	-0.108481	0.974041	0.979832	0.000401	-0.199821	0.021286	0.994098	0.106373
11350		9.595338	-2.023964	1.069347	0.002338	-0.009698	0.010590	1.000000	0.000029	-0.000121	0.000132	0.198863	-0.108274	0.974028	0.979802	0.000675	-0.199967	0.020994	0.994121	0.106221
11351		9.549835	-1.972031	1.096506	-0.012283	-0.006924	0.012837	1.000000	-0.000154	-0.000087	0.000160	0.199011	-0.108150	0.974011	0.979769	0.000505	-0.200132	0.021152	0.994134	0.106063
11352		9.687181	-2.106046	1.047696	-0.014633	-0.005898	0.007791	1.000000	-0.000183	-0.000074	0.000097	0.199064	-0.108043	0.974012	0.979755	0.000348	-0.200199	0.021291	0.994146	0.105924
11353		9.646467	-2.070611	1.064174	0.015382	-0.015637	-0.001843	1.000000	0.000192	-0.000195	-0.000023	0.198923	-0.107676	0.974082	0.979801	0.001066	-0.199973	0.020494	0.994185	0.105713
11354		9.541772	-1.889782	1.177802	0.007196	-0.015321	0.007914	1.000000	0.000090	-0.000192	0.000099	0.199012	-0.107326	0.974102	0.979791	0.001406	-0.200019	0.020098	0.994223	0.105437
11355		9.530501	-1.951124	1.146980	-0.005481	-0.006428	0.019681	1.000000	-0.000069	-0.000080	0.000246	0.199340	-0.107201	0.974049	0.979727	0.001575	-0.200329	0.019941	0.994236	0.105342
11356		9.580276	-2.031076	1.082207	-0.023016	0.003059	0.014800	1.000000	-0.000288	0.000038	0.000185	0.199552	-0.107321	0.973992	0.979675	0.001167	-0.200588	0.020391	0.994224	0.105372
11357		9.636619	-2.032068	1.122033	-0.007136	0.009905	0.001859	1.000000	-0.000089	0.000124	0.000023	0.199407	-0.107621	0.973989	0.979701	0.001045	-0.200461	0.020556	0.994191	0.105645
11358		9.637167	-1.947398	1.153644	-0.001930	0.007588	0.004282	1.000000	-0.000024	0.000095	0.000054	0.199367	-0.107845	0.973972	0.979713	0.001262	-0.200402	0.020384	0.994167	0.105909
11359		9.632221	-1.967523	1.139973	-0.008886	0.004883	0.010564	1.000000	-0.000111	0.000061	0.000132	0.199470	-0.107995	0.973935	0.979695	0.001448	-0.200489	0.020242	0.994150	0.106091
11360		9.528667	-2.001932	1.101834	-0.010046	0.009011	0.007491	1.000000	-0.000126	0.000113	0.000094	0.199544	-0.108263	0.973890	0.979676	0.001330	-0.200581	0.020420	0.994121	0.106328
11361		9.514357	-2.043823	1.062092	-0.005211	0.011342	-0.002181	1.000000	-0.000065	0.000142	-0.000027	0.199441	-0.108571	0.973877	0.979698	0.001449	-0.200472	0.020354	0.994088	0.106655
11362		9.596355	-2.040695	1.077004	0.005219	0.009263	-0.012000	1.000000	0.000065	0.000116	-0.000150	0.198999	-0.108843	0.973937	0.979795	0.001761	-0.199999	0.020053	0.994057	0.106995
11363		9.650759	-1.957873	1.111634	-0.007417	0.003737	-0.008142	1.000000	-0.000093	0.000047	-0.000102	0.198702	-0.108978	0.973982	0.979853	0.001648	-0.199715	0.020159	0.994043	0.107110
11364		9.587478	-2.049184	1.094857	-0.006640	-0.000480	0.004163	1.000000	-0.000083	-0.000006	0.000052	0.198614	-0.109021	0.973995	0.979869	0.001564	-0.199636	0.020241	0.994038	0.107137
11365		9.531229	-2.028179	1.077804	0.000546	-0.000632	0.003985	1.000000	0.000007	-0.000008	0.000050	0.198510	-0.109050	0.974013	0.979895	0.001790	-0.199508	0.020013	0.994035	0.107213
11366		9.514621	-2.040814	1.065510	-0.008002	0.000011	-0.002468	1.000000	-0.000100	0.000000	-0.000031	0.198343	-0.109089	0.974043	0.979927	0.001735	-0.199347	0.020056	0.994030	0.107243
11367		9.586459	-2.048292	1.054124	-0.003141	0.002690	-0.002693	1.000000	-0.000039	0.000034	-0.000034	0.198121	-0.109203	0.974075	0.979973	0.001785	-0.199121	0.020006	0.994018	0.107369
11368		9.625442	-1.995661	1.112900	-0.002185	0.001765	0.003726	1.000000	-0.000027	0.000022	0.000047	0.198048	-0.109283	0.974081	0.979992	0.002002	-0.199025	0.019800	0.994009	0.107493
11369		9.581157	-2.017952	1.067268	-0.010466	-0.004427	0.008695	1.000000	-0.000131	-0.000055	0.000109	0.198141	-0.109193	0.974072	0.979978	0.002222	-0.199093	0.019575	0.994018	0.107447
11370		9.557175	-2.022107	1.068371	-0.011281	-0.005295	0.008271	1.000000	-0.000141	-0.000066	0.000103	0.198183	-0.109098	0.974074	0.979970	0.002220	-0.199134	0.019563	0.994028	0.107353
11371		9.533182	-2.026307	1.069462	-0.008044	-0.005078	0.009415	1.000000	-0.000101	-0.000063	0.000118	0.198310	-0.108995	0.974060	0.979948	0.002441	-0.199236	0.019338	0.994039	0.107293
11372		9.575398	-1.981495	1.119503	-0.003570	-0.000311	0.011761	1.000000	-0.000045	-0.000004	0.000147	0.198469	-0.109031	0.974024	0.979917	0.002517	-0.199388	0.019288	0.994035	0.107341
11373		9.592786	-1.999289	1.124701	-0.014728	-0.003037	0.012707	1.000000	-0.000184	-0.000038	0.000159	0.198660	-0.108991	0.973989	0.979877	0.002439	-0.199588	0.019378	0.994040	0.107282
11374		9.570039	-2.030942	1.119813	-0.010798	-0.005930	0.008598	1.000000	-0.000135	-0.000074	0.000107	0.198700	-0.108884	0.973993	0.979869	0.002443	-0.199625	0.019356	0.994051	0.107178
11375		9.578410	-1.983082	1.086912	-0.003118	-0.005993	0.006511	1.000000	-0.000039	-0.000075	0.000081	0.198688	-0.108778	0.974007	0.979876	0.002637	-0.199591	0.019143	0.994063	0.107113
11376		9.600579	-1.981427	1.106328	-0.013176	-0.003825	0.007114	1.000000	-0.000165	-0.000048	0.000089	0.198700	-0.108737	0.974010	0.979869	0.002395	-0.199628	0.019374	0.994068	0.107024
11377		9.577338	-1.998755	1.104359	-0.010448	-0.006225	0.007371	1.000000	-0.000131	-0.000078	0.000092	0.198760	-0.108613	0.974011	0.979858	0.002431	-0.199682	0.019320	0.994081	0.106908
11378		9.527872	-1.963631	1.117030	-0.008076	-0.006874	0.004417	1.000000	-0.000101	-0.000086	0.000055	0.198758	-0.108463	0.974028	0.979863	0.002649	-0.199654	0.019074	0.994097	0.106805
11379		9.672375	-2.105754	1.052533	-0.004878	-0.010240	-0.004463	1.000000	-0.000061	-0.000128	-0.000056	0.198558	-0.108234	0.974094	0.979909	0.002855	-0.199426	0.018804	0.994121	0.106627
11380		9.620695	-1.988344	1.122612	-0.000458	-0.013037	-0.010482	1.000000	-0.000006	-0.000163	-0.000131	0.198232	-0.107939	0.974194	0.979980	0.003047	-0.199072	0.018519	0.994153	0.106382
11381		9.501648	-1.958629	1.183216	-0.015677	-0.007885	0.006624	1.000000	-0.000196	-0.000099	0.000083	0.198231	-0.107789	0.974210	0.979978	0.002876	-0.199086	0.018657	0.994170	0.106201
11382		9.485684	-2.037738	1.137616	-0.006911	-0.004913	0.016631	1.000000	-0.000086	-0.000061	0.000208	0.198513	-0.107712	0.974161	0.979920	0.002851	-0.199371	0.018698	0.994178	0.106115
11383		9.595468	-2.106209	1.106819	-0.008061	-0.002896	0.002768	1.000000	-0.000101	-0.000036	0.000035	0.198456	-0.107683	0.974176	0.979931	0.002823	-0.199316	0.018713	0.994181	0.106082
11384		9.676849	-2.065876	1.103998	0.008258	-0.000303	-0.006121	1.000000	0.000103	-0.000004	-0.000077	0.198162	-0.107720	0.974232	0.979999	0.003224	-0.198978	0.018293	0.994176	0.106204
11385		9.630601	-1.958784	1.122435	0.007085	0.000513	0.007706	1.000000	0.000089	0.000006	0.000096	0.198159	-0.107787	0.974225	0.980005	0.003557	-0.198941	0.017978	0.994168	0.106337
11386		9.562290	-1.947751	1.106037	-0.017152	0.003708	0.021169	1.000000	-0.000214	0.000046	0.000265	0.198553	-0.107924	0.974130	0.979920	0.003330	-0.199365	0.018273	0.994154	0.106418
11387		9.482155	-2.058492	1.052919	-0.033082	0.005203	0.019172	1.000000	-0.000414	0.000065	0.000240	0.198898	-0.108091	0.974041	0.979838	0.002771	-0.199774	0.018895	0.994137	0.106463
11388		9.607482	-2.076940	1.021165	-0.007593	0.007286	0.004689	1.000000	-0.000095	0.000091	0.000059	0.198906	-0.108306	0.974016	0.979837	0.002823	-0.199781	0.018888	0.994114	0.106684
11389		9.641807	-1.968039	1.075855	-0.002889	-0.001968	0.002075	1.000000	-0.000036	-0.000025	0.000026	0.198801	-0.108304	0.974037	0.979860	0.002906	-0.199667	0.018794	0.994114	0.106701
11390		9.608956	-1.946135	1.118886	-0.017531	-0.007148	0.011362	1.000000	-0.000219	-0.000089	0.000142	0.198923	-0.108181	0.974026	0.979829	0.002581	-0.199821	0.019102	0.994128	0.106513
11391		9.555755	-1.994478	1.084195	-0.006132	-0.012354	0.014589	1.000000	-0.000077	-0.000154	0.000182	0.199093	-0.107917	0.974020	0.979798	0.002737	-0.199971	0.018914	0.994156	0.106282
11392		9.538261	-1.995901	1.072122	-0.014232	-0.009056	0.005372	1.000000	-0.000178	-0.000113	0.000067	0.199128	-0.107720	0.974035	0.979791	0.002692	-0.200007	0.018923	0.994178	0.106079
11393		9.553497	-2.019126	1.080062	-0.010139	-0.006104	-0.005527	1.000000	-0.000127	-0.000076	-0.000069	0.198903	-0.107609	0.974093	0.979836	0.002597	-0.199789	0.018969	0.994190	0.105955
11394		9.609209	-2.001320	1.144043	0.006667	-0.008862	-0.010245	1.000000	0.000083	-0.000111	-0.000128	0.198524	-0.107435	0.974190	0.979920	0.002901	-0.199372	0.018593	0.994208	0.105854
11395		9.631710	-1.957208	1.147836	0.003804	-0.014093	-0.005063	1.000000	0.000048	-0.000176	-0.000063	0.198253	-0.107141	0.974277	0.979979	0.003077	-0.199075	0.018331	0.994239	0.105606
11396		9.600715	-1.996322	1.093687	-0.016905	-0.009509	0.000226	1.000000	-0.000211	-0.000119	0.000003	0.198143	-0.106950	0.974321	0.979998	0.002824	-0.198987	0.018530	0.994260	0.105371
11397		9.577772	-2.037519	1.109153	-0.019180	-0.000176	0.001335	1.000000	-0.000240	-0.000002	0.000017	0.198057	-0.106991	0.974334	0.980010	0.002526	-0.198934	0.018823	0.994257	0.105352
11398		9.564895	-2.044152	1.132671	-0.013293	0.005211	0.000077	1.000000	-0.000166	0.000065	0.000001	0.197873	-0.107175	0.974351	0.980043	0.002358	-0.198769	0.019006	0.994237	0.105503
11399		9.565022	-2.033518	1.176705	-0.001668	0.004367	0.004632	1.000000	-0.000021	0.000055	0.000058	0.197802	-0.107339	0.974347	0.980060	0.002490	-0.198688	0.018900	0.994219	0.105691
11400		9.596561	-2.045256	1.135839	-0.011794	0.005081	0.006045	1.000000	-0.000147	0.000064	0.000076	0.197747	-0.107521	0.974339	0.980068	0.002373	-0.198648	0.019047	0.994200	0.105847
11401		9.592491	-2.103133	1.072276	-0.006474	0.006397	0.004673	1.000000	-0.000081	0.000080	0.000058	0.197694	-0.107738	0.974325	0.980077	0.002325	-0.198604	0.019132	0.994177	0.106052
11402		9.564264	-2.087137	1.087547	0.012001	0.007888	0.003585	1.000000	0.000150	0.000099	0.000045	0.197607	-0.107978	0.974316	0.980104	0.002861	-0.198464	0.018642	0.994149	0.106395
11403		9.576320	-2.032029	1.094692	0.010552	0.005798	0.007961	1.000000	0.000132	0.000072	0.000100	0.197689	-0.108165	0.974279	0.980095	0.003309	-0.198502	0.018247	0.994127	0.106666
11404		9.574882	-2.046751	1.117082	0.001512	0.005217	0.017350	1.000000	0.000019	0.000065	0.000217	0.197977	-0.108342	0.974201	0.980040	0.003537	-0.198770	0.018089	0.994107	0.106880
11405		9.515980	-1.963269	1.093198	-0.004525	0.004482	0.021198	1.000000	-0.000057	0.000056	0.000265	0.198292	-0.108509	0.974118	0.979977	0.003654	-0.199078	0.018042	0.994089	0.107061
11406		9.645364	-2.128233	1.010777	-0.021940	0.001395	0.020799	1.000000	-0.000274	0.000017	0.000260	0.198714	-0.108593	0.974023	0.979883	0.003244	-0.199548	0.018510	0.994081	0.107053
11407		9.668445	-2.043862	1.061602	0.012237	-0.004051	0.013105	1.000000	0.000153	-0.000051	0.000164	0.198845	-0.108547	0.974001	0.979865	0.003757	-0.199624	0.018009	0.994084	0.107108
11408		9.521536	-1.878148	1.153248	-0.018167	-0.005558	0.028464	1.000000	-0.000227	-0.000069	0.000356	0.199412	-0.108434	0.973898	0.979749	0.003751	-0.200192	0.018055	0.994097	0.106986
11409		9.488582	-2.001134	1.089251	-0.015407	-0.003683	0.036542	1.000000	-0.000193	-0.000046	0.000457	0.200200	-0.108375	0.973743	0.979587	0.003722	-0.200987	0.018158	0.994103	0.106907
11410		9.549046	-2.064672	1.066656	-0.015332	-0.002840	0.020503	1.000000	-0.000192	-0.000036	0.000256	0.200543	-0.108366	0.973673	0.979511	0.003457	-0.201361	0.018454	0.994105	0.106839
11411		9.633868	-2.072500	1.070650	0.008858	-0.002453	0.005969	1.000000	0.000111	-0.000031	0.000075	0.200496	-0.108358	0.973684	0.979529	0.003881	-0.201267	0.018030	0.994104	0.106918
11412		9.650952	-1.899446	1.147603	0.014361	-0.006550	0.007906	1.000000	0.000180	-0.000082	0.000099	0.200554	-0.108247	0.973684	0.979526	0.004389	-0.201270	0.017513	0.994114	0.106911
11413		9.645787	-1.945938	1.148697	-0.009879	-0.006914	0.018769	1.000000	-0.000123	-0.000086	0.000235	0.200842	-0.108128	0.973638	0.979466	0.004362	-0.201560	0.017547	0.994127	0.106784
11414		9.525631	-2.006594	1.092386	-0.008370	-0.004104	0.015843	1.000000	-0.000105	-0.000051	0.000198	0.201174	-0.108069	0.973576	0.979397	0.004329	-0.201896	0.017604	0.994134	0.106713
11415		9.572027	-2.042199	1.060509	0.008021	-0.000055	0.002439	1.000000	0.000100	-0.000001	0.000030	0.201097	-0.108110	0.973587	0.979421	0.004776	-0.201771	0.017163	0.994128	0.106845
11416		9.575025	-1.958193	1.131471	0.008232	-0.001030	-0.007612	1.000000	0.000103	-0.000013	-0.000095	0.200749	-0.108140	0.973656	0.979499	0.005124	-0.201384	0.016789	0.994122	0.106952
11417		9.581599	-1.979394	1.136685	-0.004238	-0.004701	-0.001460	1.000000	-0.000053	-0.000059	-0.000018	0.200529	-0.108067	0.973709	0.979547	0.005298	-0.201143	0.016578	0.994130	0.106919
11418		9.576606	-2.033683	1.095045	0.013012	-0.005288	-0.000970	1.000000	0.000163	-0.000066	-0.000012	0.200416	-0.107980	0.973742	0.979579	0.005793	-0.200975	0.016060	0.994136	0.106936
11419		9.583842	-2.018374	1.061920	-0.001501	-0.001335	-0.001524	1.000000	-0.000019	-0.000017	-0.000019	0.200256	-0.107989	0.973774	0.979615	0.005976	-0.200795	0.015865	0.994134	0.106984
11420		9.599933	-2.068013	1.066003	-0.003405	0.001937	-0.001340	1.000000	-0.000043	0.000024	-0.000017	0.200104	-0.108075	0.973796	0.979649	0.006159	-0.200623	0.015685	0.994124	0.107108
11421		9.612086	-2.023585	1.092030	0.006578	0.000070	0.000140	1.000000	0.000082	0.000001	0.000002	0.199951	-0.108141	0.973820	0.979684	0.006363	-0.200449	0.015480	0.994115	0.107216
11422		9.589038	-2.013681	1.073875	0.000504	-0.003903	0.003424	1.000000	0.000006	-0.000049	0.000043	0.199873	-0.108097	0.973841	0.979702	0.006533	-0.200351	0.015295	0.994119	0.107209
11423		9.584340	-2.008077	1.039803	-0.011713	-0.005005	0.009583	1.000000	-0.000146	-0.000063	0.000120	0.199932	-0.108022	0.973837	0.979689	0.006465	-0.200417	0.015354	0.994128	0.107120
11424		9.589128	-1.981254	1.032964	-0.018314	0.001753	0.012717	1.000000	-0.000229	0.000022	0.000159	0.200085	-0.108110	0.973796	0.979654	0.006250	-0.200595	0.015600	0.994119	0.107161
11425		9.538483	-1.985395	1.086138	-0.020097	0.003936	0.016693	1.000000	-0.000251	0.000049	0.000209	0.200356	-0.108244	0.973725	0.979595	0.006061	-0.200890	0.015844	0.994106	0.107249
11426		9.563090	-1.978100	1.102154	-0.020733	-0.000115	0.012902	1.000000	-0.000259	-0.000001	0.000161	0.200540	-0.108314	0.973679	0.979548	0.005504	-0.201137	0.016427	0.994102	0.107202
11427		9.571954	-1.970043	1.084361	-0.022268	-0.003958	0.008580	1.000000	-0.000278	-0.000049	0.000107	0.200584	-0.108286	0.973673	0.979530	0.004962	-0.201239	0.016961	0.994107	0.107065
11428		9.591384	-2.001763	1.061093	-0.013962	-0.006794	0.003290	1.000000	-0.000175	-0.000085	0.000041	0.200529	-0.108174	0.973697	0.979538	0.004731	-0.201206	0.017159	0.994121	0.106910
11429		9.581049	-2.011764	1.098621	-0.004807	-0.010555	-0.002929	1.000000	-0.000060	-0.000132	-0.000037	0.200255	-0.107962	0.973777	0.979596	0.004833	-0.200916	0.016985	0.994143	0.106727
11430		9.568972	-1.991270	1.101889	-0.004009	-0.011459	-0.007534	1.000000	-0.000050	-0.000143	-0.000094	0.199909	-0.107730	0.973874	0.979670	0.004888	-0.200558	0.016846	0.994168	0.106516
11431		9.608882	-1.999596	1.085006	-0.012743	-0.014095	-0.004373	1.000000	-0.000159	-0.000176	-0.000055	0.199658	-0.107440	0.973958	0.979719	0.004670	-0.200323	0.016975	0.994201	0.106193
11432		9.562617	-1.966035	1.112910	-0.006136	-0.012263	0.000790	1.000000	-0.000077	-0.000153	0.000010	0.199567	-0.107201	0.974003	0.979736	0.004536	-0.200242	0.017048	0.994227	0.105934
11433		9.592626	-2.062538	1.100979	-0.014937	-0.012348	-0.000602	1.000000	-0.000187	-0.000154	-0.000008	0.199417	-0.106948	0.974061	0.979764	0.004299	-0.200112	0.017214	0.994255	0.105641
11434		9.682560	-2.135035	1.126747	0.011231	-0.014507	-0.013949	1.000000	0.000140	-0.000181	-0.000174	0.198907	-0.106644	0.974199	0.979876	0.004689	-0.199552	0.016713	0.994286	0.105430
11435		9.570454	-1.896227	1.187483	-0.008196	-0.009665	-0.007826	1.000000	-0.000102	-0.000121	-0.000098	0.198575	-0.106452	0.974287	0.979944	0.004665	-0.199219	0.016662	0.994307	0.105243
11436		9.481875	-2.025828	1.144720	-0.029981	-0.003165	0.008543	1.000000	-0.000375	-0.000040	0.000107	0.198647	-0.106443	0.974274	0.979917	0.003923	-0.199369	0.017399	0.994311	0.105085
11437		9.570489	-2.102603	1.109192	-0.001174	0.005781	0.015810	1.000000	-0.000015	0.000072	0.000198	0.198931	-0.106653	0.974193	0.979858	0.003929	-0.199657	0.017466	0.994289	0.105286
11438		9.628585	-2.094337	1.106097	0.012263	0.013992	0.006274	1.000000	0.000153	0.000175	0.000078	0.198932	-0.107027	0.974151	0.979868	0.004635	-0.199590	0.016846	0.994245	0.105795
11439		9.654814	-1.961043	1.142639	-0.001364	0.013725	0.011627	1.000000	-0.000017	0.000172	0.000145	0.199094	-0.107404	0.974077	0.979839	0.004929	-0.199729	0.016650	0.994203	0.106220
11440		9.612350	-2.016096	1.110299	-0.027396	0.013742	0.025198	1.000000	-0.000342	0.000172	0.000315	0.199514	-0.107805	0.973947	0.979743	0.004439	-0.200210	0.017260	0.994162	0.106507
11441		9.514087	-2.038916	1.041101	-0.008059	0.016307	0.033987	1.000000	-0.000101	0.000204	0.000425	0.200185	-0.108259	0.973759	0.979604	0.004510	-0.200885	0.017356	0.994112	0.106954
11442		9.533924	-2.079619	1.039683	-0.006544	0.015576	0.024674	1.000000	-0.000082	0.000195	0.000308	0.200631	-0.108705	0.973617	0.979511	0.004524	-0.201340	0.017482	0.994064	0.107385
11443		9.593598	-2.038492	1.038506	-0.004110	0.007820	0.012591	1.000000	-0.000051	0.000098	0.000157	0.200839	-0.108947	0.973547	0.979469	0.004621	-0.201543	0.017459	0.994037	0.107638
11444		9.591709	-1.990928	1.092244	-0.003696	0.001697	0.019016	1.000000	-0.000046	0.000021	0.000238	0.201226	-0.109029	0.973458	0.979391	0.004792	-0.201916	0.017350	0.994027	0.107746
11445		9.575004	-1.985555	1.102433	0.003344	-0.004397	0.029256	1.000000	0.000042	-0.000055	0.000366	0.201787	-0.108968	0.973349	0.979281	0.005155	-0.202440	0.017042	0.994032	0.107750
11446		9.548995	-1.991588	1.064088	-0.012480	-0.002421	0.026656	1.000000	-0.000156	-0.000030	0.000333	0.202285	-0.108965	0.973246	0.979175	0.005015	-0.202956	0.017235	0.994033	0.107711
11447		9.540702	-2.036744	1.049084	-0.017769	0.000009	0.016900	1.000000	-0.000222	0.000000	0.000211	0.202564	-0.109011	0.973183	0.979113	0.004824	-0.203258	0.017463	0.994029	0.107711
11448		9.589614	-2.016996	1.105639	-0.005884	0.000642	0.014176	1.000000	-0.000074	0.000008	0.000177	0.202733	-0.109080	0.973140	0.979079	0.004876	-0.203423	0.017444	0.994021	0.107787
11449		9.581618	-1.996561	1.123334	0.000739	-0.003622	0.013818	1.000000	0.000009	-0.000045	0.000173	0.202909	-0.109043	0.973107	0.979046	0.005088	-0.203577	0.017248	0.994024	0.107791
11450		9.581261	-1.999124	1.121819	-0.009730	-0.007150	0.006525	1.000000	-0.000122	-0.000089	0.000082	0.202964	-0.108915	0.973110	0.979033	0.005020	-0.203638	0.017295	0.994038	0.107650
11451		9.601405	-2.057594	1.092394	-0.018426	-0.002500	0.004946	1.000000	-0.000230	-0.000031	0.000062	0.202942	-0.108902	0.973116	0.979034	0.004777	-0.203642	0.017528	0.994041	0.107588
11452		9.578269	-2.063841	1.134957	-0.017282	0.005923	0.011023	1.000000	-0.000216	0.000074	0.000138	0.203057	-0.109108	0.973069	0.979004	0.004484	-0.203793	0.017872	0.994020	0.107728
11453		9.545970	-2.031563	1.159934	-0.016283	0.007138	0.014474	1.000000	-0.000204	0.000089	0.000181	0.203258	-0.109340	0.973001	0.978957	0.004274	-0.204022	0.018149	0.993995	0.107908
11454		9.581015	-2.078594	1.168881	-0.028479	0.007252	0.010409	1.000000	-0.000356	0.000091	0.000130	0.203390	-0.109578	0.972947	0.978918	0.003701	-0.204221	0.018778	0.993971	0.108021
11455		9.577911	-2.102452	1.106500	-0.031068	0.010060	0.009524	1.000000	-0.000388	0.000126	0.000119	0.203488	-0.109895	0.972890	0.978882	0.003008	-0.204402	0.019536	0.993939	0.108186
11456		9.581888	-2.126822	1.137284	-0.021731	0.012714	0.011822	1.000000	-0.000272	0.000159	0.000148	0.203613	-0.110269	0.972822	0.978847	0.002621	-0.204577	0.020008	0.993898	0.108470
11457		9.568447	-2.110444	1.145748	-0.008440	0.012491	0.009925	1.000000	-0.000106	0.000156	0.000124	0.203757	-0.110616	0.972752	0.978817	0.002712	-0.204719	0.020007	0.993860	0.108825
11458		9.586958	-2.103878	1.112219	-0.022527	0.010824	0.007809	1.000000	-0.000282	0.000135	0.000098	0.203784	-0.110938	0.972710	0.978802	0.002339	-0.204794	0.020445	0.993825	0.109063
11459		9.540791	-2.074935	1.121646	-0.018294	0.011462	0.014622	1.000000	-0.000229	0.000143	0.000183	0.204016	-0.111269	0.972624	0.978748	0.002137	-0.205056	0.020738	0.993788	0.109340
11460		9.550010	-2.094571	1.100748	-0.013851	0.009683	0.015804	1.000000	-0.000173	0.000121	0.000198	0.204227	-0.111575	0.972544	0.978698	0.001936	-0.205297	0.021023	0.993754	0.109593
11461		9.638974	-2.197611	1.060276	-0.002117	0.003953	0.000788	1.000000	-0.000026	0.000049	0.000010	0.204182	-0.111703	0.972539	0.978712	0.002197	-0.205225	0.020787	0.993739	0.109773
11462		9.580076	-2.018432	1.163122	-0.005970	-0.002827	0.000392	1.000000	-0.000075	-0.000035	0.000005	0.204047	-0.111685	0.972569	0.978741	0.002208	-0.205088	0.020758	0.993741	0.109762
11463		9.457679	-2.046921	1.136884	-0.017752	-0.002879	0.015687	1.000000	-0.000222	-0.000036	0.000196	0.204270	-0.111665	0.972525	0.978690	0.002009	-0.205335	0.020975	0.993744	0.109696
11464		9.497158	-2.101939	1.112749	-0.009368	0.000252	0.023287	1.000000	-0.000117	0.000003	0.000291	0.204662	-0.111719	0.972436	0.978608	0.002055	-0.205725	0.020985	0.993738	0.109750
11465		9.600583	-2.166654	1.113654	-0.002108	0.003154	0.006720	1.000000	-0.000026	0.000039	0.000084	0.204711	-0.111843	0.972412	0.978601	0.002229	-0.205757	0.020845	0.993723	0.109906
11466		9.629363	-2.059720	1.142014	0.010959	0.001111	0.002555	1.000000	0.000137	0.000014	0.000032	0.204575	-0.111915	0.972432	0.978640	0.002766	-0.205562	0.020316	0.993714	0.110091
11467		9.613089	-2.037027	1.155610	-0.008485	-0.003430	0.013695	1.000000	-0.000106	-0.000043	0.000171	0.204776	-0.111907	0.972391	0.978593	0.002571	-0.205787	0.020529	0.993715	0.110038
11468		9.534698	-2.072170	1.128382	0.000528	-0.002288	0.015871	1.000000	0.000007	-0.000029	0.000198	0.204978	-0.111903	0.972348	0.978556	0.002822	-0.205962	0.020304	0.993715	0.110082
11469		9.498738	-2.083712	1.130911	-0.004610	0.002368	0.006798	1.000000	-0.000058	0.000030	0.000085	0.205018	-0.112019	0.972327	0.978548	0.002863	-0.206000	0.020292	0.993702	0.110203
11470		9.589337	-2.123660	1.098137	-0.003135	0.001996	-0.000430	1.000000	-0.000039	0.000025	-0.000005	0.204859	-0.112134	0.972347	0.978581	0.002868	-0.205841	0.020293	0.993689	0.110320
11471		9.642544	-2.043026	1.180873	0.001680	0.001664	0.004559	1.000000	0.000021	0.000021	0.000057	0.204783	-0.112251	0.972350	0.978598	0.002952	-0.205758	0.020227	0.993675	0.110453
11472		9.585965	-2.047505	1.181874	-0.008249	-0.001618	0.015957	1.000000	-0.000103	-0.000020	0.000199	0.205026	-0.112278	0.972295	0.978545	0.002865	-0.206013	0.020345	0.993673	0.110456
11473		9.522181	-2.067051	1.150830	-0.006771	-0.000257	0.013795	1.000000	-0.000085	-0.000003	0.000172	0.205227	-0.112320	0.972248	0.978503	0.002922	-0.206210	0.020320	0.993668	0.110505
11474		9.523628	-2.097794	1.120446	-0.006144	0.002831	0.006636	1.000000	-0.000077	0.000035	0.000083	0.205244	-0.112444	0.972230	0.978500	0.002964	-0.206225	0.020307	0.993654	0.110635
11475		9.583390	-2.052551	1.141882	-0.001237	0.005518	0.002689	1.000000	-0.000015	0.000069	0.000034	0.205206	-0.112624	0.972217	0.978512	0.003168	-0.206168	0.020139	0.993633	0.110854
11476		9.605960	-2.025484	1.146802	0.000319	0.005007	0.006555	1.000000	0.000004	0.000063	0.000082	0.205219	-0.112808	0.972193	0.978511	0.003317	-0.206168	0.020033	0.993611	0.111065
11477		9.579730	-2.024444	1.133590	-0.007922	-0.001051	0.005080	1.000000	-0.000099	-0.000013	0.000063	0.205192	-0.112852	0.972194	0.978514	0.003197	-0.206154	0.020157	0.993607	0.111083
11478		9.555767	-2.051020	1.088674	-0.011205	-0.003713	0.001122	1.000000	-0.000140	-0.000046	0.000014	0.205101	-0.112806	0.972218	0.978532	0.003136	-0.206069	0.020196	0.993612	0.111027
11479		9.540306	-2.040365	1.098185	-0.006417	-0.001468	0.001548	1.000000	-0.000080	-0.000018	0.000019	0.204976	-0.112832	0.972242	0.978558	0.003097	-0.205948	0.020226	0.993609	0.111048
11480		9.521910	-2.013792	1.159092	-0.008581	-0.000756	0.001744	1.000000	-0.000107	-0.000009	0.000022	0.204892	-0.112874	0.972254	0.978574	0.003005	-0.205875	0.020316	0.993605	0.111071
11481		9.552899	-2.036583	1.136730	-0.017579	-0.003668	-0.001795	1.000000	-0.000220	-0.000046	-0.000022	0.204657	-0.112847	0.972307	0.978617	0.002683	-0.205673	0.020601	0.993609	0.110983
11482		9.587956	-2.077121	1.102677	-0.016198	-0.006256	-0.006022	1.000000	-0.000202	-0.000078	-0.000075	0.204402	-0.112731	0.972374	0.978668	0.002532	-0.205431	0.020697	0.993622	0.110843
