// Start Time: Unknown
// Update Rate: 40.0Hz
// Filter Profile: human (46.1)
// Firmware Version: 4.3.4
PacketCounter	SampleTimeFine	Acc_X	Acc_Y	Acc_Z	Gyr_X	Gyr_Y	Gyr_Z	OriInc_q0	OriInc_q1	OriInc_q2	OriInc_q3	Mat[1][1]	Mat[2][1]	Mat[3][1]	Mat[1][2]	Mat[2][2]	Mat[3][2]	Mat[1][3]	Mat[2][3]	Mat[3][3]
10839		9.179437	-3.230219	-2.386222	-0.640048	-0.056930	0.166316	0.999966	-0.008001	-0.000712	0.002079	-0.317494	0.241484	0.916997	-0.233324	0.917406	-0.322376	-0.919107	-0.316310	-0.234927
10840		9.280106	-3.510967	-2.258520	-0.639010	-0.015465	0.122626	0.999967	-0.007988	-0.000193	0.001533	-0.318541	0.244183	0.915918	-0.217638	0.921598	-0.321389	-0.922586	-0.301715	-0.240423
10841		9.400275	-3.559057	-1.760128	-0.603451	0.018878	0.061328	0.999971	-0.007543	0.000236	0.000767	-0.319927	0.245389	0.915113	-0.203034	0.925681	-0.319204	-0.925432	-0.287921	-0.246328
10842		9.315505	-3.108221	-2.227169	-0.568961	0.053808	0.010924	0.999974	-0.007112	0.000673	0.000137	-0.318157	0.244234	0.916038	-0.192833	0.929375	-0.314765	-0.928220	-0.276787	-0.248590
10843		9.517375	-3.086658	-2.298231	-0.580162	0.083225	-0.061877	0.999973	-0.007252	0.001040	-0.000773	-0.314806	0.244530	0.917116	-0.181205	0.932989	-0.310961	-0.931698	-0.264079	-0.249400
10844		9.458111	-3.334541	-1.459738	-0.542006	0.086402	-0.132745	0.999975	-0.006775	0.001080	-0.001659	-0.310888	0.242033	0.919113	-0.170747	0.937077	-0.304519	-0.934983	-0.251607	-0.250000
10845		9.063626	-3.504882	-1.069435	-0.484600	0.074868	-0.189874	0.999978	-0.006057	0.000936	-0.002373	-0.306183	0.239418	0.921374	-0.165440	0.939748	-0.299170	-0.937487	-0.244033	-0.248126
10846		9.435662	-3.268078	-0.868393	-0.330802	0.049943	-0.268274	0.999986	-0.004135	0.000624	-0.003353	-0.301720	0.235463	0.923862	-0.170514	0.940071	-0.295282	-0.938024	-0.246624	-0.243489
10847		9.162308	-2.679807	-1.155310	-0.259794	0.025022	-0.320280	0.999987	-0.003247	0.000313	-0.004003	-0.296561	0.229994	0.926906	-0.179560	0.939830	-0.290650	-0.937982	-0.252630	-0.237419
10848		9.215595	-2.686475	-1.273038	-0.186388	-0.025902	-0.369351	0.999987	-0.002330	-0.000324	-0.004617	-0.291059	0.222672	0.930431	-0.191801	0.939211	-0.284772	-0.937282	-0.261343	-0.230657
10849		9.017868	-2.299203	-1.046062	-0.027587	-0.077085	-0.394277	0.999987	-0.000345	-0.000964	-0.004928	-0.285398	0.214406	0.934119	-0.200812	0.939644	-0.277028	-0.937135	-0.266646	-0.225117
10850		9.572471	-2.765528	-0.793918	0.096382	-0.112868	-0.434271	0.999984	0.001205	-0.001411	-0.005428	-0.281800	0.203997	0.937536	-0.210870	0.940078	-0.267932	-0.936014	-0.273201	-0.221897
10851		8.947683	-2.072114	-1.651945	0.096495	-0.145404	-0.469856	0.999980	0.001206	-0.001818	-0.005873	-0.278691	0.191073	0.941181	-0.223269	0.940267	-0.256999	-0.934068	-0.281760	-0.219383
10852		9.499627	-1.477826	-2.216813	-0.033010	-0.176606	-0.508673	0.999977	-0.000413	-0.002208	-0.006358	-0.277595	0.178293	0.944009	-0.235080	0.940149	-0.246692	-0.931493	-0.290398	-0.219068
10853		9.852757	-1.036163	-2.113331	-0.209195	-0.191247	-0.517996	0.999973	-0.002615	-0.002391	-0.006475	-0.273512	0.163224	0.947918	-0.232439	0.945073	-0.229802	-0.933361	-0.283186	-0.220549
10854		9.840482	-1.216173	-1.742058	-0.387406	-0.204080	-0.533466	0.999963	-0.004843	-0.002551	-0.006668	-0.269901	0.147453	0.951531	-0.218649	0.953005	-0.209701	-0.937735	-0.264649	-0.224976
10855		9.700943	-2.241217	-0.952259	-0.532389	-0.243156	-0.564754	0.999948	-0.006655	-0.003039	-0.007059	-0.268860	0.130783	0.954259	-0.219273	0.956413	-0.192858	-0.937888	-0.261096	-0.228464
10856		9.384751	-2.305848	-0.639334	-0.460640	-0.287787	-0.653178	0.999944	-0.005758	-0.003597	-0.008165	-0.268267	0.112432	0.956761	-0.214828	0.961174	-0.173186	-0.939085	-0.252000	-0.233698
10857		8.802650	-1.852269	0.056045	-0.188875	-0.366792	-0.735501	0.999944	-0.002361	-0.004585	-0.009194	-0.266677	0.091638	0.959420	-0.214591	0.964835	-0.151802	-0.939593	-0.246365	-0.237634
10858		9.919909	-2.072050	1.336638	0.298783	-0.487783	-0.709175	0.999935	0.003735	-0.006097	-0.008865	-0.268312	0.071996	0.960638	-0.224044	0.965195	-0.134915	-0.936917	-0.251425	-0.242844
10859		10.938938	0.123002	0.297898	0.685227	-0.554702	-0.540892	0.999916	0.008565	-0.006934	-0.006761	-0.272716	0.056105	0.960457	-0.252632	0.959091	-0.127759	-0.928333	-0.277484	-0.247386
10860		11.751179	2.550009	-0.069925	0.598727	-0.531929	-0.128990	0.999949	0.007484	-0.006649	-0.001612	-0.273953	0.047975	0.960546	-0.284039	0.950168	-0.128466	-0.918843	-0.308026	-0.246674
10861		12.073967	1.706523	0.982160	-0.276680	-0.234039	0.686603	0.999953	-0.003458	-0.002925	0.008582	-0.276348	0.061274	0.959102	-0.278777	0.949947	-0.141014	-0.919737	-0.306344	-0.245434
10862		10.967138	-1.975146	-1.357040	-0.645895	-0.085875	1.283561	0.999838	-0.008073	-0.001073	0.016044	-0.278271	0.089212	0.956351	-0.264528	0.950054	-0.165595	-0.923358	-0.299062	-0.240774
10863		9.555108	-10.557746	-2.523938	0.682848	-0.080614	1.114647	0.999866	0.008535	-0.001008	0.013932	-0.277463	0.111379	0.954258	-0.289393	0.937436	-0.193561	-0.916115	-0.329862	-0.227871
10864		7.850969	-5.817406	-3.147685	2.017647	0.034505	0.480754	0.999664	0.025218	0.000431	0.006009	-0.273863	0.120358	0.954208	-0.353593	0.910054	-0.216271	-0.894411	-0.396630	-0.206672
10865		7.909961	-2.000220	-3.856535	2.072728	0.314880	0.051218	0.999656	0.025906	0.003936	0.000640	-0.260505	0.123611	0.957527	-0.421099	0.877917	-0.227898	-0.868800	-0.462583	-0.176649
10866		8.258244	1.292003	-3.641746	1.283780	0.670766	0.014441	0.999836	0.016046	0.008384	0.000180	-0.242901	0.127740	0.961604	-0.471481	0.850781	-0.232115	-0.847765	-0.509758	-0.146428
10867		8.587820	-1.068566	-2.828152	0.564618	0.865993	0.030801	0.999916	0.007058	0.010825	0.000385	-0.223907	0.133973	0.965359	-0.503083	0.832457	-0.232215	-0.834730	-0.537650	-0.118993
10868		8.259010	-2.708132	-4.047649	0.631017	0.952948	-0.218187	0.999894	0.007887	0.011911	-0.002727	-0.200456	0.138961	0.969797	-0.531084	0.816413	-0.226757	-0.823266	-0.560499	-0.089855
10869		8.497372	-1.762748	-4.559009	0.944061	0.973162	-0.552056	0.999833	0.011800	0.012164	-0.006900	-0.173001	0.135404	0.975570	-0.571135	0.793176	-0.211370	-0.802418	-0.593749	-0.059886
10870		9.336223	0.686187	-3.866811	0.924799	0.941729	-0.700752	0.999826	0.011559	0.011771	-0.008759	-0.146595	0.128689	0.980790	-0.609016	0.769568	-0.192002	-0.779493	-0.625463	-0.034441
10871		9.882622	1.912845	-3.591975	0.344903	0.892477	-0.582893	0.999902	0.004311	0.011156	-0.007286	-0.121700	0.123386	0.984868	-0.636575	0.751602	-0.172823	-0.761552	-0.647975	-0.012926
10872		9.489069	1.399141	-2.872479	-0.350883	0.860570	-0.335342	0.999924	-0.004386	0.010757	-0.004192	-0.100595	0.125174	0.987022	-0.642606	0.749196	-0.160506	-0.759564	-0.650412	0.005072
10873		9.010299	-1.080940	-2.652585	-0.253505	0.702410	-0.191730	0.999954	-0.003169	0.008780	-0.002397	-0.084994	0.127118	0.988239	-0.641926	0.751573	-0.151885	-0.762041	-0.647286	0.017721
10874		8.694837	-0.351946	-3.780467	0.014933	0.522510	-0.247441	0.999974	0.000187	0.006531	-0.003093	-0.070726	0.126231	0.989476	-0.644044	0.751706	-0.141933	-0.761712	-0.647305	0.028133
10875		8.772757	0.527409	-2.845554	-0.031382	0.440266	-0.304430	0.999978	-0.000392	0.005503	-0.003805	-0.057497	0.123062	0.990732	-0.639611	0.757419	-0.131201	-0.766545	-0.641227	0.035163
10876		8.655929	0.193489	-2.210423	-0.158837	0.158668	-0.131615	0.999995	-0.001985	0.001983	-0.001645	-0.053914	0.118332	0.991509	-0.635137	0.762137	-0.125494	-0.770516	-0.636510	0.034067
10877		10.133847	0.194989	-2.029803	-0.524556	0.071073	0.024302	0.999978	-0.006557	0.000888	0.000304	-0.054723	0.114815	0.991878	-0.623768	0.771751	-0.123748	-0.779692	-0.625474	0.029385
10878		9.955934	-0.744589	-1.421742	-0.609135	0.169509	-0.046213	0.999969	-0.007614	0.002119	-0.000578	-0.052156	0.112437	0.992289	-0.608772	0.784088	-0.120843	-0.791629	-0.610381	0.027553
10879		9.101208	-1.400266	-1.652769	-0.486339	0.162698	-0.071963	0.999979	-0.006079	0.002034	-0.000900	-0.049896	0.108758	0.992815	-0.598576	0.792491	-0.116897	-0.799511	-0.600108	0.025558
10880		8.730771	-2.221436	-0.680979	0.061952	0.043996	-0.122026	0.999998	0.000774	0.000550	-0.001525	-0.049134	0.102718	0.993496	-0.598353	0.793419	-0.111624	-0.799725	-0.599946	0.022478
10881		10.618234	-0.903543	-0.469334	0.382811	0.060926	-0.173447	0.999986	0.004785	0.000762	-0.002168	-0.038672	0.100230	0.994212	-0.532614	0.839773	-0.105377	-0.845474	-0.533606	0.020908
10882		10.197635	-0.556519	-1.180818	0.237999	0.144558	-0.109622	0.999993	0.002975	0.001807	-0.001370	-0.029976	0.098945	0.994641	-0.479254	0.871826	-0.101171	-0.877164	-0.479718	0.021286
10883		9.630360	-0.556331	-1.468013	0.383029	0.117231	-0.142244	0.999986	0.004788	0.001465	-0.001778	-0.022331	0.095949	0.995136	-0.433906	0.895817	-0.096110	-0.900681	-0.433941	0.021629
10884		9.997986	-0.513587	-0.329881	0.364945	0.103109	-0.129586	0.999987	0.004562	0.001289	-0.001620	-0.017136	0.092353	0.995579	-0.401054	0.911478	-0.091455	-0.915894	-0.400848	0.021419
10885		10.338640	-0.894085	0.120621	0.260509	0.144125	-0.095817	0.999992	0.003256	0.001802	-0.001198	-0.011635	0.089793	0.995892	-0.368092	0.925639	-0.087759	-0.929717	-0.367601	0.022282
10886		9.763674	-0.791573	-0.248610	0.196937	0.152310	-0.078148	0.999995	0.002462	0.001904	-0.000977	-0.007423	0.087623	0.996126	-0.347231	0.933943	-0.084741	-0.937750	-0.346515	0.023493
10887		9.691141	-0.642411	-0.305282	0.112292	0.151940	-0.062884	0.999997	0.001404	0.001899	-0.000786	-0.003290	0.085755	0.996311	-0.324383	0.942349	-0.082182	-0.945920	-0.323457	0.024717
10888		9.594346	-1.034998	-0.204130	-0.002548	0.149729	-0.043178	0.999998	-0.000032	0.001872	-0.000540	0.000060	0.084230	0.996446	-0.303623	0.949408	-0.080235	-0.952792	-0.302539	0.025631
10889		9.869764	-1.240652	-0.085790	0.056625	0.144079	-0.051703	0.999998	0.000708	0.001801	-0.000646	0.002828	0.082597	0.996579	-0.290258	0.953746	-0.078224	-0.956944	-0.289043	0.026671
10890		10.062439	-1.053826	-0.030116	0.086865	0.149981	-0.071553	0.999997	0.001086	0.001875	-0.000894	0.005922	0.080644	0.996725	-0.279184	0.957242	-0.075791	-0.960219	-0.277821	0.028184
10891		9.802531	-0.988193	-0.106306	0.128718	0.150946	-0.086242	0.999996	0.001609	0.001887	-0.001078	0.009604	0.078505	0.996867	-0.266640	0.961019	-0.073113	-0.963748	-0.265102	0.030162
10892		9.780972	-0.706397	-0.084494	0.194105	0.141001	-0.100880	0.999995	0.002426	0.001763	-0.001261	0.012493	0.076042	0.997026	-0.263574	0.962090	-0.070075	-0.964558	-0.261915	0.032062
10893		10.031859	-0.595489	-0.039347	0.142191	0.132382	-0.082187	0.999997	0.001777	0.001655	-0.001027	0.014619	0.073890	0.997159	-0.260184	0.963193	-0.067558	-0.965448	-0.258457	0.033306
10894		9.847905	-0.860874	0.206075	0.094077	0.130935	-0.071385	0.999998	0.001176	0.001637	-0.000892	0.016935	0.072045	0.997258	-0.253784	0.965047	-0.065409	-0.967113	-0.251981	0.034627
10895		9.716096	-0.762558	0.227895	0.136412	0.122463	-0.066713	0.999997	0.001705	0.001531	-0.000834	0.018742	0.070417	0.997342	-0.253289	0.965311	-0.063396	-0.967209	-0.251427	0.035928
10896		9.957366	-0.385431	0.236032	0.167878	0.102559	-0.062041	0.999997	0.002098	0.001282	-0.000776	0.020369	0.068852	0.997419	-0.251013	0.966024	-0.061559	-0.967769	-0.249111	0.036960
10897		9.792020	-0.800313	0.409288	0.158261	0.086260	-0.053319	0.999997	0.001978	0.001078	-0.000666	0.021490	0.067468	0.997490	-0.251119	0.966099	-0.059934	-0.967718	-0.249201	0.037704
10898		9.785038	-0.534395	0.444446	0.163523	0.075635	-0.040309	0.999997	0.002044	0.000945	-0.000504	0.022183	0.066396	0.997547	-0.251692	0.966026	-0.058701	-0.967553	-0.249772	0.038140
10899		9.806023	-0.957737	-0.047446	0.037016	0.086203	-0.031655	0.999999	0.000463	0.001078	-0.000396	0.023177	0.065687	0.997571	-0.250622	0.966358	-0.057809	-0.967808	-0.248673	0.038860
10900		9.592515	-1.649846	-0.151975	0.008993	0.103185	-0.052601	0.999999	0.000112	0.001290	-0.000658	0.025065	0.064666	0.997592	-0.247198	0.967317	-0.056493	-0.968641	-0.245186	0.040231
10901		9.805396	-0.824615	0.527172	0.035015	0.106537	-0.080750	0.999999	0.000438	0.001332	-0.001009	0.027520	0.063140	0.997625	-0.244775	0.968046	-0.054516	-0.969189	-0.242694	0.042096
10902		10.102512	-0.555457	0.889003	0.012737	0.083821	-0.081850	0.999999	0.000159	0.001048	-0.001023	0.028822	0.061485	0.997692	-0.245534	0.967962	-0.052560	-0.968959	-0.243453	0.042995
10903		9.838795	-0.857817	0.821013	-0.026046	0.059584	-0.068101	0.999999	-0.000326	0.000745	-0.000851	0.029888	0.060015	0.997750	-0.239220	0.969617	-0.051157	-0.970505	-0.237153	0.043337
10904		9.956203	-0.765752	0.659864	0.024829	0.036569	-0.080049	0.999999	0.000310	0.000457	-0.001001	0.030280	0.058208	0.997845	-0.239624	0.969614	-0.049289	-0.970394	-0.237615	0.043308
10905		10.051356	-0.533740	0.233436	-0.009797	0.021498	-0.073456	1.000000	-0.000122	0.000269	-0.000918	0.030659	0.056515	0.997931	-0.236005	0.970580	-0.047715	-0.971268	-0.234054	0.043095
10906		9.754476	-0.976146	0.377842	0.037880	-0.009061	-0.085136	0.999999	0.000473	-0.000113	-0.001064	0.030090	0.054392	0.998066	-0.237015	0.970429	-0.045740	-0.971040	-0.235181	0.042092
10907		9.995931	-0.588578	0.582602	0.090803	-0.026314	-0.089011	0.999999	0.001135	-0.000329	-0.001113	0.029001	0.052137	0.998219	-0.238351	0.970193	-0.043749	-0.970746	-0.236658	0.040563
10908		10.023351	-0.370730	0.338779	0.085526	-0.036194	-0.074013	0.999999	0.001069	-0.000452	-0.000925	0.027748	0.050220	0.998353	-0.238368	0.970258	-0.042182	-0.970778	-0.236805	0.038894
10909		9.948237	-0.143085	0.267466	0.146941	-0.062065	-0.071966	0.999998	0.001837	-0.000776	-0.000900	0.025641	0.048200	0.998509	-0.242420	0.969323	-0.040566	-0.969832	-0.241018	0.036539
10910		9.958543	0.140438	0.468333	0.129950	-0.087019	-0.033848	0.999998	0.001624	-0.001088	-0.000423	0.023219	0.046898	0.998630	-0.245381	0.968610	-0.039783	-0.969149	-0.244121	0.033998
10911		9.998706	-0.316029	0.542751	0.108049	-0.120470	-0.007627	0.999998	0.001351	-0.001506	-0.000095	0.019616	0.046036	0.998747	-0.247328	0.968115	-0.039766	-0.968733	-0.246238	0.030376
10912		9.647568	-0.413739	0.655405	0.260385	-0.167186	0.011237	0.999993	0.003255	-0.002090	0.000140	0.015204	0.045363	0.998855	-0.251221	0.967099	-0.040097	-0.967810	-0.250324	0.026100
10913		10.023317	-0.249895	0.542804	0.321795	-0.199262	0.031227	0.999989	0.004022	-0.002491	0.000390	0.009510	0.044986	0.998942	-0.258177	0.965227	-0.041010	-0.966051	-0.257514	0.020794
10914		9.789252	-0.436471	-0.356210	0.245807	-0.186818	0.057888	0.999992	0.003073	-0.002335	0.000724	0.003674	0.045073	0.998977	-0.268151	0.962442	-0.042439	-0.963370	-0.267721	0.015622
10915		9.650401	-1.147549	-0.642933	0.202097	-0.159317	0.051558	0.999995	0.002526	-0.001991	0.000644	-0.000915	0.045197	0.998978	-0.273555	0.960862	-0.043723	-0.961856	-0.273316	0.011485
10916		9.838565	-1.085635	-0.014878	0.344357	-0.165719	0.008280	0.999989	0.004304	-0.002071	0.000104	-0.005493	0.044235	0.999006	-0.282630	0.958220	-0.043983	-0.959213	-0.282591	0.007239
10917		9.804105	-0.138198	0.149163	0.100947	-0.126606	0.022369	0.999998	0.001262	-0.001583	0.000280	-0.009014	0.044237	0.998980	-0.281047	0.958639	-0.044986	-0.959652	-0.281166	0.003792
10918		9.653381	-0.583954	0.216473	-0.298896	-0.075126	0.040217	0.999992	-0.003736	-0.000939	0.000503	-0.011202	0.044777	0.998934	-0.273158	0.960862	-0.046134	-0.961904	-0.273384	0.001468
10919		9.702429	-0.894412	-0.238354	-0.337508	-0.036499	0.055026	0.999991	-0.004219	-0.000456	0.000688	-0.012567	0.046167	0.998855	-0.262321	0.963794	-0.047847	-0.964899	-0.262622	-0.000001
10920		9.808350	-0.744380	-0.585761	-0.163283	-0.021456	0.044781	0.999998	-0.002041	-0.000268	0.000560	-0.014109	0.047123	0.998789	-0.260986	0.964089	-0.049173	-0.965239	-0.261364	-0.001304
10921		10.010040	-0.629785	-0.763945	-0.015546	-0.052446	0.015599	1.000000	-0.000194	-0.000656	0.000195	-0.016040	0.047003	0.998766	-0.261737	0.963866	-0.049564	-0.965006	-0.262209	-0.003158
10922		9.871035	-1.096908	-0.537033	-0.049868	-0.042324	-0.002327	1.000000	-0.000623	-0.000529	-0.000029	-0.017453	0.046995	0.998743	-0.259933	0.964336	-0.049918	-0.965469	-0.260477	-0.004615
10923		9.891783	-0.700258	-0.294624	-0.017097	-0.036425	-0.018229	1.000000	-0.000214	-0.000455	-0.000228	-0.019083	0.046496	0.998736	-0.260313	0.964236	-0.049863	-0.965336	-0.260936	-0.006297
10924		9.811448	-0.192525	-0.042456	-0.095903	-0.027746	0.013081	0.999999	-0.001199	-0.000347	0.000164	-0.020416	0.046733	0.998699	-0.258404	0.964720	-0.050425	-0.965821	-0.259098	-0.007620
10925		9.805754	-0.346452	0.123665	-0.006573	-0.060591	0.033789	1.000000	-0.000082	-0.000757	0.000422	-0.022811	0.047167	0.998627	-0.259092	0.964480	-0.051472	-0.965583	-0.259910	-0.009780
10926		9.995193	-0.225600	-0.129524	-0.080040	-0.090643	0.061190	0.999999	-0.001000	-0.001133	0.000765	-0.026124	0.048115	0.998500	-0.257926	0.964697	-0.053235	-0.965811	-0.258930	-0.012791
10927		9.773547	-0.918856	-0.105312	-0.236637	-0.052789	0.044690	0.999995	-0.002958	-0.000660	0.000559	-0.027784	0.049156	0.998405	-0.251265	0.966379	-0.054571	-0.967519	-0.252380	-0.014499
10928		9.660708	-1.195533	-0.497787	-0.256944	0.007440	0.024236	0.999995	-0.003212	0.000093	0.000303	-0.028294	0.049877	0.998354	-0.245413	0.967840	-0.055308	-0.969006	-0.246574	-0.015144
10929		9.675128	-1.410516	-0.391357	-0.166961	0.025438	0.014402	0.999998	-0.002087	0.000318	0.000180	-0.028149	0.050574	0.998324	-0.241345	0.968829	-0.055885	-0.970031	-0.242514	-0.015066
10930		9.815306	-0.657721	-0.111046	-0.108265	0.020679	0.001867	0.999999	-0.001353	0.000258	0.000023	-0.028160	0.050956	0.998304	-0.238932	0.969407	-0.056221	-0.970628	-0.240110	-0.015123
10931		9.791692	-0.699024	0.021264	-0.243749	0.034146	0.028880	0.999995	-0.003047	0.000427	0.000361	-0.027779	0.052049	0.998258	-0.232980	0.970804	-0.057101	-0.972085	-0.234161	-0.014841
10932		9.719313	-0.897037	0.012463	-0.289225	0.056053	0.031278	0.999993	-0.003615	0.000701	0.000391	-0.027039	0.053254	0.998215	-0.226372	0.972312	-0.058004	-0.973666	-0.227536	-0.014235
10933		9.842549	-1.454125	-0.145873	-0.285675	0.089599	0.006010	0.999993	-0.003571	0.001120	0.000075	-0.025071	0.054076	0.998222	-0.219277	0.973921	-0.058267	-0.975341	-0.220348	-0.012559
10934		9.764811	-1.497816	-0.328821	-0.028490	0.086418	-0.038203	0.999999	-0.000356	0.001080	-0.000478	-0.023005	0.053988	0.998277	-0.218329	0.974167	-0.057715	-0.975604	-0.219281	-0.010624
10935		9.761058	-0.332928	-0.172331	0.074575	0.075420	-0.058233	0.999999	0.000932	0.000943	-0.000728	-0.021279	0.053492	0.998342	-0.220059	0.973827	-0.056869	-0.975254	-0.220904	-0.008951
10936		10.058158	-0.187455	-0.160162	0.018513	0.062728	-0.061877	0.999999	0.000231	0.000784	-0.000773	-0.020204	0.052586	0.998412	-0.221574	0.973548	-0.055760	-0.974934	-0.222349	-0.008018
10937		9.862706	-0.524228	-0.033286	0.035596	0.048592	-0.053512	0.999999	0.000445	0.000607	-0.000669	-0.019264	0.051874	0.998468	-0.222847	0.973308	-0.054866	-0.974663	-0.223562	-0.007190
10938		9.882968	-0.634563	-0.070838	0.084145	0.039675	-0.039845	0.999999	0.001052	0.000496	-0.000498	-0.018142	0.051130	0.998527	-0.224974	0.972872	-0.053904	-0.974196	-0.225621	-0.006146
10939		9.723226	-0.769790	0.039028	0.101674	0.029786	-0.028415	0.999999	0.001271	0.000372	-0.000355	-0.017637	0.050876	0.998549	-0.227627	0.972274	-0.053558	-0.973589	-0.228242	-0.005568
10940		9.820156	-0.679905	-0.074844	0.084732	0.017516	-0.028602	0.999999	0.001059	0.000219	-0.000358	-0.017327	0.050525	0.998572	-0.229766	0.971793	-0.053157	-0.973092	-0.230360	-0.005229
10941		9.752651	-0.612602	-0.227414	0.102032	0.009859	-0.014661	0.999999	0.001275	0.000123	-0.000183	-0.017249	0.050636	0.998568	-0.231982	0.971261	-0.053258	-0.972567	-0.232569	-0.005007
10942		9.725292	-0.495078	-0.184813	0.185920	0.010455	-0.001561	0.999997	0.002324	0.000131	-0.000020	-0.017683	0.050895	0.998547	-0.237357	0.969940	-0.053640	-0.971262	-0.237961	-0.005071
10943		10.049361	-0.301066	0.031346	0.215450	-0.005531	0.007803	0.999996	0.002693	-0.000069	0.000098	-0.018065	0.051179	0.998526	-0.242662	0.968605	-0.054036	-0.969943	-0.243281	-0.005079
10944		9.939449	-0.386758	-0.086592	0.109308	-0.009814	0.022816	0.999999	0.001366	-0.000123	0.000285	-0.018593	0.051771	0.998486	-0.245323	0.967894	-0.054753	-0.969263	-0.245969	-0.005295
10945		9.849604	-0.870835	-0.404223	0.036905	-0.012484	0.017828	1.000000	0.000461	-0.000156	0.000223	-0.019446	0.052524	0.998430	-0.246307	0.967590	-0.055699	-0.968997	-0.247004	-0.005878
10946		9.787603	-0.764392	0.017393	0.057410	-0.017276	0.007353	1.000000	0.000718	-0.000216	0.000092	-0.020351	0.052783	0.998399	-0.248122	0.967098	-0.056186	-0.968515	-0.248868	-0.006585
10947		9.921213	-0.513228	0.238366	0.007768	-0.021407	0.022522	1.000000	0.000097	-0.000268	0.000282	-0.021521	0.053384	0.998342	-0.248839	0.966862	-0.057065	-0.968306	-0.249654	-0.007524
10948		9.809487	-0.568483	-0.049987	-0.039387	-0.031641	0.034284	1.000000	-0.000492	-0.000396	0.000429	-0.022522	0.054390	0.998266	-0.247251	0.967198	-0.058276	-0.968690	-0.248134	-0.008335
10949		9.698017	-0.859184	-0.342041	0.001447	-0.025451	0.039978	1.000000	0.000018	-0.000318	0.000500	-0.023966	0.055368	0.998178	-0.247963	0.966935	-0.059588	-0.968473	-0.248939	-0.009445
10950		9.807490	-0.786283	-0.230898	0.067457	-0.025515	0.032681	1.000000	0.000843	-0.000319	0.000409	-0.025415	0.056105	0.998101	-0.250398	0.966239	-0.060690	-0.967809	-0.251465	-0.010509
10951		9.851473	-0.694377	0.026462	0.070223	-0.027568	0.035927	0.999999	0.000878	-0.000345	0.000449	-0.026695	0.057019	0.998016	-0.252348	0.965653	-0.061920	-0.967268	-0.253500	-0.011389
10952		9.853379	-0.676683	-0.076251	0.000155	-0.029597	0.040864	1.000000	0.000002	-0.000370	0.000511	-0.028208	0.057889	0.997924	-0.252991	0.965405	-0.063153	-0.967057	-0.254247	-0.012587
10953		9.944390	-0.659260	-0.336394	-0.064565	-0.021775	0.043495	0.999999	-0.000807	-0.000272	0.000544	-0.029378	0.059035	0.997824	-0.251607	0.965675	-0.064541	-0.967383	-0.252956	-0.013516
10954		9.682750	-1.042180	-0.435180	-0.049068	-0.014680	0.029718	1.000000	-0.000613	-0.000184	0.000371	-0.030143	0.059929	0.997747	-0.250364	0.965928	-0.065581	-0.967682	-0.251777	-0.014112
10955		9.779981	-0.921665	-0.271255	-0.009688	-0.007098	0.019080	1.000000	-0.000121	-0.000089	0.000238	-0.030903	0.060510	0.997689	-0.250500	0.965841	-0.066337	-0.967623	-0.251971	-0.014689
10956		9.813058	-0.860765	-0.125465	-0.013832	-0.004393	0.020203	1.000000	-0.000173	-0.000055	0.000253	-0.031618	0.061004	0.997637	-0.250730	0.965736	-0.066999	-0.967541	-0.252256	-0.015239
10957		9.830406	-0.853850	-0.137457	-0.014854	-0.000228	0.017831	1.000000	-0.000186	-0.000003	0.000223	-0.032381	0.061796	0.997563	-0.250745	0.965665	-0.067959	-0.967511	-0.252335	-0.015774
10958		9.862650	-0.902943	-0.202356	0.006972	0.001566	0.003399	1.000000	0.000087	0.000020	0.000042	-0.032818	0.062046	0.997534	-0.251295	0.965496	-0.068320	-0.967354	-0.252917	-0.016093
10959		9.812058	-0.751452	-0.244706	-0.018658	0.005713	0.002124	1.000000	-0.000233	0.000071	0.000027	-0.032969	0.062317	0.997512	-0.251023	0.965546	-0.068617	-0.967420	-0.252661	-0.016190
10960		9.841460	-0.895264	-0.285448	-0.036082	0.012275	-0.001353	1.000000	-0.000451	0.000153	-0.000017	-0.033000	0.062623	0.997492	-0.250347	0.965701	-0.068909	-0.967594	-0.251993	-0.016191
10961		9.899819	-0.779740	-0.251441	-0.030169	0.015364	-0.009206	1.000000	-0.000377	0.000192	-0.000115	-0.032987	0.062806	0.997480	-0.249830	0.965823	-0.069075	-0.967728	-0.251479	-0.016169
10962		9.814013	-0.794592	-0.276063	-0.023789	0.020249	-0.018835	1.000000	-0.000297	0.000253	-0.000235	-0.032915	0.062481	0.997503	-0.249973	0.965809	-0.068744	-0.967693	-0.251611	-0.016171
10963		9.772409	-0.776467	-0.160536	-0.038151	0.021011	-0.012477	1.000000	-0.000477	0.000263	-0.000156	-0.032735	0.062425	0.997513	-0.249449	0.965953	-0.068636	-0.967834	-0.251075	-0.016049
10964		9.847054	-0.758575	-0.115935	-0.029650	0.021391	-0.012998	1.000000	-0.000371	0.000267	-0.000162	-0.032282	0.062399	0.997529	-0.248851	0.966117	-0.068487	-0.968004	-0.250447	-0.015660
10965		9.808896	-0.677609	-0.100507	-0.021099	0.012744	-0.009061	1.000000	-0.000264	0.000159	-0.000113	-0.032599	0.062233	0.997529	-0.249189	0.966036	-0.068412	-0.967906	-0.250803	-0.015984
10966		9.842390	-0.742258	-0.036093	-0.019997	0.008735	-0.002564	1.000000	-0.000250	0.000109	-0.000032	-0.032858	0.062324	0.997515	-0.249286	0.965999	-0.068566	-0.967872	-0.250920	-0.016205
10967		9.846730	-0.750358	-0.158002	-0.008666	0.006674	-0.001288	1.000000	-0.000108	0.000083	-0.000016	-0.032937	0.062636	0.997493	-0.249100	0.966025	-0.068886	-0.967917	-0.250745	-0.016215
10968		9.808241	-0.888726	-0.226953	-0.001741	0.006295	-0.003053	1.000000	-0.000022	0.000079	-0.000038	-0.033326	0.062639	0.997480	-0.249577	0.965894	-0.068994	-0.967781	-0.251247	-0.016556
10969		9.852705	-0.787183	-0.203659	0.001118	0.007428	-0.006991	1.000000	0.000014	0.000093	-0.000087	-0.033435	0.062510	0.997484	-0.249960	0.965801	-0.068903	-0.967679	-0.251635	-0.016667
10970		9.823705	-0.867050	-0.101412	-0.013548	0.008869	-0.009747	1.000000	-0.000169	0.000111	-0.000122	-0.033565	0.062680	0.997469	-0.249792	0.965831	-0.069097	-0.967717	-0.251480	-0.016761
10971		9.858466	-0.724939	-0.199695	-0.018990	0.009854	-0.010872	1.000000	-0.000237	0.000123	-0.000136	-0.033471	0.062939	0.997456	-0.249148	0.965982	-0.069313	-0.967887	-0.250834	-0.016651
10972		9.842809	-0.707582	-0.242628	-0.025256	0.008611	-0.008831	1.000000	-0.000316	0.000108	-0.000110	-0.033403	0.063062	0.997450	-0.248588	0.966119	-0.069406	-0.968033	-0.250272	-0.016595
10973		9.769032	-0.745995	-0.064595	-0.023040	0.004780	-0.003837	1.000000	-0.000288	0.000060	-0.000048	-0.033486	0.063168	0.997441	-0.248155	0.966222	-0.069522	-0.968141	-0.249848	-0.016680
10974		9.812887	-0.777456	-0.088045	-0.010362	0.002651	-0.001349	1.000000	-0.000130	0.000033	-0.000017	-0.033931	0.063513	0.997404	-0.248087	0.966208	-0.069966	-0.968143	-0.249817	-0.017027
10975		9.802876	-0.846837	-0.230632	-0.008978	0.003175	-0.002396	1.000000	-0.000112	0.000040	-0.000030	-0.034127	0.063768	0.997381	-0.247903	0.966234	-0.070259	-0.968183	-0.249652	-0.017167
10976		9.810569	-0.817156	-0.195198	-0.005357	0.004734	-0.002720	1.000000	-0.000067	0.000059	-0.000034	-0.034489	0.064075	0.997349	-0.248033	0.966172	-0.070649	-0.968137	-0.249812	-0.017430
10977		9.835106	-0.788799	-0.142356	-0.001640	0.006386	-0.004886	1.000000	-0.000020	0.000080	-0.000061	-0.034600	0.064178	0.997339	-0.248161	0.966130	-0.070779	-0.968101	-0.249950	-0.017502
10978		9.845734	-0.798939	-0.276098	-0.008750	0.008220	-0.010346	1.000000	-0.000109	0.000103	-0.000129	-0.034663	0.064067	0.997343	-0.248183	0.966131	-0.070687	-0.968093	-0.249974	-0.017589
10979		9.813740	-0.800226	-0.208794	-0.012324	0.008532	-0.010819	1.000000	-0.000154	0.000107	-0.000135	-0.034388	0.064006	0.997357	-0.247746	0.966253	-0.070552	-0.968215	-0.249517	-0.017370
10980		9.801865	-0.806571	-0.105467	0.001533	0.009074	-0.012879	1.000000	0.000019	0.000113	-0.000161	-0.034372	0.063855	0.997367	-0.248004	0.966197	-0.070407	-0.968149	-0.249771	-0.017373
10981		9.815877	-0.738645	-0.133521	-0.005092	0.007391	-0.009455	1.000000	-0.000064	0.000092	-0.000118	-0.034416	0.063946	0.997360	-0.247943	0.966206	-0.070504	-0.968163	-0.249715	-0.017398
10982		9.814817	-0.801397	-0.063926	-0.004915	0.003982	-0.007411	1.000000	-0.000061	0.000050	-0.000093	-0.034489	0.064000	0.997354	-0.247905	0.966210	-0.070575	-0.968170	-0.249683	-0.017458
10983		9.810210	-0.707955	-0.095021	-0.006673	0.001751	-0.006436	1.000000	-0.000083	0.000022	-0.000080	-0.034732	0.064135	0.997337	-0.248025	0.966165	-0.070768	-0.968131	-0.249822	-0.017650
10984		9.827249	-0.777350	-0.152330	-0.014413	-0.000788	-0.005234	1.000000	-0.000180	-0.000010	-0.000065	-0.034792	0.064225	0.997329	-0.247589	0.966270	-0.070862	-0.968240	-0.249393	-0.017717
10985		9.791010	-0.750065	-0.131459	-0.008424	-0.003471	-0.001993	1.000000	-0.000105	-0.000043	-0.000025	-0.034865	0.064302	0.997321	-0.247308	0.966336	-0.070950	-0.968309	-0.249119	-0.017789
10986		9.825712	-0.785474	-0.176042	-0.005629	-0.004805	-0.002873	1.000000	-0.000070	-0.000060	-0.000036	-0.035059	0.064565	0.997297	-0.247037	0.966383	-0.071248	-0.968372	-0.248867	-0.017930
10987		9.821494	-0.794214	-0.168360	-0.007749	-0.004480	-0.003976	1.000000	-0.000097	-0.000056	-0.000050	-0.035196	0.064641	0.997288	-0.246754	0.966448	-0.071351	-0.968439	-0.248596	-0.018065
10988		9.806733	-0.787615	-0.266505	-0.005778	-0.000792	-0.007170	1.000000	-0.000072	-0.000010	-0.000090	-0.035385	0.064617	0.997283	-0.246628	0.966478	-0.071372	-0.968464	-0.248484	-0.018262
10989		9.772008	-0.813075	-0.194898	0.004601	0.002107	-0.006367	1.000000	0.000058	0.000026	-0.000080	-0.035459	0.064651	0.997278	-0.246789	0.966433	-0.071426	-0.968420	-0.248650	-0.018313
10990		9.802450	-0.667312	-0.121022	0.000366	-0.000234	-0.005107	1.000000	0.000005	-0.000003	-0.000064	-0.035701	0.064746	0.997263	-0.246869	0.966402	-0.071580	-0.968391	-0.248749	-0.018517
10991		9.807716	-0.787520	-0.216599	-0.013058	-0.000204	-0.000302	1.000000	-0.000163	-0.000003	-0.000004	-0.036042	0.064946	0.997238	-0.246745	0.966413	-0.071856	-0.968410	-0.248654	-0.018807
10992		9.821957	-0.800107	-0.181696	0.000657	-0.002279	-0.003445	1.000000	0.000008	-0.000028	-0.000043	-0.036297	0.064986	0.997226	-0.246868	0.966374	-0.071961	-0.968369	-0.248795	-0.019033
10993		9.815986	-0.761054	-0.133226	0.002014	-0.002356	-0.002235	1.000000	0.000025	-0.000029	-0.000028	-0.036654	0.065114	0.997204	-0.247085	0.966302	-0.072178	-0.968300	-0.249040	-0.019330
10994		9.792456	-0.826082	-0.172758	0.006207	-0.001890	-0.002700	1.000000	0.000078	-0.000024	-0.000034	-0.036945	0.065234	0.997186	-0.247327	0.966226	-0.072372	-0.968228	-0.249305	-0.019563
10995		9.817031	-0.769966	-0.186800	0.008116	-0.003672	0.000624	1.000000	0.000101	-0.000046	0.000008	-0.037290	0.065422	0.997161	-0.247601	0.966135	-0.072646	-0.968144	-0.249607	-0.019828
10996		9.810138	-0.779535	-0.147763	0.008475	-0.003238	-0.000765	1.000000	0.000106	-0.000040	-0.000010	-0.037696	0.065481	0.997142	-0.248016	0.966016	-0.072813	-0.968022	-0.250052	-0.020175
10997		9.887185	-0.770769	-0.241409	0.002623	-0.005845	-0.001166	1.000000	0.000033	-0.000073	-0.000015	-0.037982	0.065473	0.997131	-0.248083	0.965994	-0.072878	-0.967994	-0.250140	-0.020448
10998		9.785029	-0.768102	-0.214115	0.005981	-0.004620	-0.001940	1.000000	0.000075	-0.000058	-0.000024	-0.038492	0.065702	0.997097	-0.248464	0.965869	-0.073236	-0.967876	-0.250562	-0.020854
10999		9.773973	-0.809918	-0.190942	0.013176	-0.003363	-0.001790	1.000000	0.000165	-0.000042	-0.000022	-0.038909	0.065800	0.997074	-0.248998	0.965715	-0.073447	-0.967722	-0.251127	-0.021191
11000		9.817871	-0.830015	-0.203113	0.022740	-0.003363	-0.001547	1.000000	0.000284	-0.000042	-0.000019	-0.039253	0.065839	0.997058	-0.249686	0.965527	-0.073586	-0.967531	-0.251840	-0.021461
11001		9.812204	-0.808739	-0.268608	0.018151	0.001111	-0.004371	1.000000	0.000227	0.000014	-0.000055	-0.039407	0.065924	0.997046	-0.250126	0.965403	-0.073718	-0.967411	-0.252292	-0.021554
11002		9.813635	-0.768667	-0.119190	0.021660	0.001311	-0.004313	1.000000	0.000271	0.000016	-0.000054	-0.039815	0.065967	0.997027	-0.250963	0.965173	-0.073881	-0.967178	-0.253158	-0.021873
11003		9.843482	-0.723818	-0.206393	0.015710	-0.001386	-0.002869	1.000000	0.000196	-0.000017	-0.000036	-0.040116	0.066149	0.997003	-0.251491	0.965015	-0.074146	-0.967028	-0.253711	-0.022076
11004		9.820865	-0.764150	-0.260740	0.010098	0.000009	-0.002570	1.000000	0.000126	0.000000	-0.000032	-0.040370	0.066195	0.996990	-0.251885	0.964904	-0.074264	-0.966915	-0.254124	-0.022280
11005		9.800500	-0.837657	-0.190431	0.016211	0.001007	-0.006897	1.000000	0.000203	0.000013	-0.000086	-0.040289	0.066139	0.996997	-0.252180	0.964832	-0.074196	-0.966841	-0.254412	-0.022193
11006		9.847122	-0.845112	-0.219832	0.012389	0.002247	-0.006362	1.000000	0.000155	0.000028	-0.000080	-0.040320	0.066292	0.996985	-0.252445	0.964750	-0.074358	-0.966771	-0.254682	-0.022164
11007		9.804215	-0.775027	-0.198148	0.006872	0.003732	-0.007905	1.000000	0.000086	0.000047	-0.000099	-0.040369	0.066260	0.996985	-0.252690	0.964687	-0.074345	-0.966705	-0.254930	-0.022200
11008		9.803678	-0.769596	-0.247063	0.001965	0.001730	-0.008375	1.000000	0.000025	0.000022	-0.000105	-0.040544	0.066330	0.996974	-0.252829	0.964641	-0.074460	-0.966661	-0.255083	-0.022341
11009		9.829208	-0.835790	-0.243569	0.003505	0.005491	-0.010602	1.000000	0.000044	0.000069	-0.000133	-0.040454	0.066411	0.996972	-0.252924	0.964612	-0.074518	-0.966640	-0.255173	-0.022225
11010		9.802454	-0.763035	-0.253934	-0.002357	0.007818	-0.009298	1.000000	-0.000029	0.000098	-0.000116	-0.040409	0.066450	0.996971	-0.252992	0.964592	-0.074546	-0.966624	-0.255238	-0.022167
11011		9.811043	-0.781177	-0.217042	-0.001303	0.008510	-0.011211	1.000000	-0.000016	0.000106	-0.000140	-0.040402	0.066490	0.996969	-0.253059	0.964572	-0.074584	-0.966607	-0.255305	-0.022145
11012		9.841503	-0.754786	-0.175261	-0.002239	0.009179	-0.009680	1.000000	-0.000028	0.000115	-0.000121	-0.040338	0.066372	0.996979	-0.253032	0.964589	-0.074454	-0.966616	-0.255271	-0.022115
11013		9.801326	-0.782095	-0.192181	-0.002465	0.006452	-0.008915	1.000000	-0.000031	0.000081	-0.000111	-0.040131	0.066452	0.996982	-0.252881	0.964627	-0.074475	-0.966665	-0.255106	-0.021907
11014		9.822730	-0.794702	-0.207253	0.004394	0.006605	-0.011087	1.000000	0.000055	0.000083	-0.000139	-0.040091	0.066426	0.996986	-0.252979	0.964604	-0.074442	-0.966641	-0.255201	-0.021868
11015		9.819521	-0.765350	-0.200004	0.005380	0.004826	-0.009943	1.000000	0.000067	0.000060	-0.000124	-0.040043	0.066374	0.996991	-0.253127	0.964569	-0.074382	-0.966604	-0.255344	-0.021823
11016		9.805507	-0.750108	-0.234096	0.006406	0.004920	-0.009599	1.000000	0.000080	0.000062	-0.000120	-0.040083	0.066515	0.996980	-0.253393	0.964488	-0.074535	-0.966533	-0.255615	-0.021805
11017		9.811473	-0.779852	-0.179324	0.009917	0.005124	-0.009538	1.000000	0.000124	0.000064	-0.000119	-0.039969	0.066486	0.996987	-0.253547	0.964451	-0.074481	-0.966497	-0.255760	-0.021691
11018		9.827682	-0.752406	-0.185875	0.005831	0.006018	-0.009458	1.000000	0.000073	0.000075	-0.000118	-0.039839	0.066468	0.996993	-0.253608	0.964439	-0.074431	-0.966486	-0.255811	-0.021565
11019		9.815681	-0.785304	-0.259407	-0.001145	0.007478	-0.010378	1.000000	-0.000014	0.000093	-0.000130	-0.039828	0.066411	0.996997	-0.253704	0.964418	-0.074376	-0.966462	-0.255905	-0.021562
11020		9.824016	-0.768273	-0.185726	0.002717	0.006837	-0.013163	1.000000	0.000034	0.000085	-0.000165	-0.039809	0.066350	0.997002	-0.253874	0.964378	-0.074316	-0.966418	-0.256071	-0.021546
11021		9.809147	-0.765496	-0.191458	-0.002829	0.007714	-0.012457	1.000000	-0.000035	0.000096	-0.000156	-0.039709	0.066330	0.997007	-0.253853	0.964387	-0.074271	-0.966427	-0.256043	-0.021457
11022		9.844969	-0.750593	-0.223925	0.004916	0.006008	-0.011639	1.000000	0.000061	0.000075	-0.000145	-0.039794	0.066280	0.997007	-0.254095	0.964325	-0.074250	-0.966360	-0.256289	-0.021533
11023		9.821176	-0.720983	-0.162852	0.001295	0.004437	-0.011319	1.000000	0.000016	0.000055	-0.000141	-0.039772	0.066152	0.997017	-0.254174	0.964314	-0.074121	-0.966340	-0.256364	-0.021539
11024		9.788019	-0.790394	-0.179730	0.001088	0.004264	-0.007639	1.000000	0.000014	0.000053	-0.000095	-0.039838	0.066148	0.997014	-0.254239	0.964296	-0.074137	-0.966321	-0.256433	-0.021598
11025		9.800873	-0.759565	-0.205674	0.006308	0.003555	-0.009210	1.000000	0.000079	0.000044	-0.000115	-0.039972	0.066275	0.997000	-0.254499	0.964215	-0.074299	-0.966247	-0.256706	-0.021675
11026		9.827215	-0.726500	-0.233823	0.008059	0.001532	-0.008171	1.000000	0.000101	0.000019	-0.000102	-0.039980	0.066092	0.997012	-0.254613	0.964198	-0.074127	-0.966216	-0.256816	-0.021721
11027		9.841702	-0.749081	-0.209912	0.006464	0.003811	-0.006920	1.000000	0.000081	0.000048	-0.000086	-0.040114	0.065977	0.997014	-0.254858	0.964138	-0.074056	-0.966146	-0.257068	-0.021861
11028		9.820699	-0.744211	-0.204710	0.002664	0.002664	-0.005177	1.000000	0.000033	0.000033	-0.000065	-0.040211	0.066103	0.997002	-0.254963	0.964099	-0.074205	-0.966114	-0.257182	-0.021913
11029		9.822997	-0.790817	-0.243759	0.002439	0.002914	-0.007884	1.000000	0.000030	0.000036	-0.000099	-0.040469	0.066116	0.996991	-0.255216	0.964026	-0.074289	-0.966037	-0.257454	-0.022139
11030		9.808206	-0.757905	-0.164029	0.004045	0.001911	-0.007677	1.000000	0.000051	0.000024	-0.000096	-0.040600	0.066101	0.996987	-0.255372	0.963983	-0.074313	-0.965990	-0.257619	-0.022257
11031		9.810332	-0.741546	-0.231712	0.004780	0.001071	-0.005526	1.000000	0.000060	0.000013	-0.000069	-0.040690	0.066098	0.996983	-0.255479	0.963953	-0.074335	-0.965958	-0.257733	-0.022336
11032		9.830927	-0.779952	-0.232275	0.008985	0.001543	-0.005984	1.000000	0.000112	0.000019	-0.000075	-0.040721	0.066102	0.996982	-0.255672	0.963900	-0.074351	-0.965906	-0.257928	-0.022351
11033		9.850148	-0.745042	-0.208594	0.008068	0.001529	-0.008169	1.000000	0.000101	0.000019	-0.000102	-0.040814	0.065978	0.996986	-0.255916	0.963842	-0.074261	-0.965837	-0.258176	-0.022453
11034		9.816108	-0.776641	-0.238751	0.005252	0.001581	-0.008754	1.000000	0.000066	0.000020	-0.000109	-0.040905	0.065839	0.996992	-0.256056	0.963813	-0.074153	-0.965796	-0.258319	-0.022566
11035		9.814200	-0.737970	-0.210932	0.008652	0.000429	-0.008307	1.000000	0.000108	0.000005	-0.000104	-0.041172	0.065789	0.996984	-0.256444	0.963708	-0.074183	-0.965682	-0.258725	-0.022807
11036		9.808487	-0.744017	-0.211040	0.003686	0.001480	-0.006288	1.000000	0.000046	0.000018	-0.000079	-0.041344	0.065931	0.996967	-0.256621	0.963647	-0.074370	-0.965627	-0.258917	-0.022922
11037		9.820146	-0.715501	-0.197452	0.011953	0.000472	-0.004563	1.000000	0.000149	0.000006	-0.000057	-0.041448	0.065898	0.996965	-0.256865	0.963581	-0.074371	-0.965558	-0.259168	-0.023012
11038		9.827226	-0.756682	-0.196631	0.010412	-0.003285	-0.002336	1.000000	0.000130	-0.000041	-0.000029	-0.041810	0.066089	0.996937	-0.257234	0.963461	-0.074658	-0.965444	-0.259568	-0.023282
11039		9.784823	-0.737844	-0.176255	0.014951	-0.002978	-0.001926	1.000000	0.000187	-0.000037	-0.000024	-0.041944	0.066228	0.996923	-0.257527	0.963369	-0.074834	-0.965360	-0.259873	-0.023352
11040		9.815105	-0.736759	-0.161967	0.019340	-0.005902	-0.000331	1.000000	0.000242	-0.000074	-0.000004	-0.042211	0.066372	0.996902	-0.257962	0.963235	-0.075053	-0.965232	-0.260331	-0.023538
11041		9.817333	-0.745565	-0.255874	0.012904	-0.006145	0.000860	1.000000	0.000161	-0.000077	0.000011	-0.042656	0.066554	0.996871	-0.258355	0.963107	-0.075354	-0.965108	-0.260761	-0.023887
11042		9.808276	-0.758063	-0.137132	0.007486	-0.007569	0.000941	1.000000	0.000094	-0.000095	0.000012	-0.043142	0.066564	0.996849	-0.258648	0.963017	-0.075498	-0.965008	-0.261090	-0.024330
11043		9.829640	-0.745585	-0.220919	-0.005467	-0.007541	0.002905	1.000000	-0.000068	-0.000094	0.000036	-0.043451	0.066883	0.996814	-0.258459	0.963037	-0.075883	-0.965044	-0.260933	-0.024559
11044		9.812575	-0.815847	-0.273284	-0.006716	-0.007393	-0.000147	1.000000	-0.000084	-0.000092	-0.000002	-0.043870	0.066922	0.996793	-0.258334	0.963059	-0.076027	-0.965059	-0.260841	-0.024961
11045		9.815094	-0.724907	-0.399188	-0.009853	-0.001649	-0.002165	1.000000	-0.000123	-0.000021	-0.000027	-0.044143	0.067061	0.996772	-0.258228	0.963072	-0.076229	-0.965075	-0.260760	-0.025196
11046		9.797934	-0.849666	-0.319028	-0.000927	0.001675	-0.007115	1.000000	-0.000012	0.000021	-0.000089	-0.044167	0.067122	0.996767	-0.258183	0.963079	-0.076294	-0.965086	-0.260718	-0.025207
11047		9.827748	-0.745492	-0.143239	0.009027	0.002127	-0.008244	1.000000	0.000113	0.000027	-0.000103	-0.044250	0.067032	0.996769	-0.258415	0.963021	-0.076235	-0.965020	-0.260954	-0.025292
11048		9.819603	-0.735122	-0.190185	0.002443	-0.000067	-0.004411	1.000000	0.000031	-0.000001	-0.000055	-0.044424	0.067230	0.996748	-0.258537	0.962969	-0.076474	-0.964979	-0.261094	-0.025397
11049		9.799281	-0.788696	-0.247400	0.004999	-0.001743	-0.005730	1.000000	0.000062	-0.000022	-0.000072	-0.044688	0.067158	0.996741	-0.258736	0.962916	-0.076479	-0.964914	-0.261311	-0.025654
11050		9.813756	-0.772016	-0.277562	0.008514	-0.001532	-0.005667	1.000000	0.000106	-0.000019	-0.000071	-0.045016	0.067116	0.996729	-0.259044	0.962829	-0.076532	-0.964816	-0.261642	-0.025957
11051		9.809709	-0.779874	-0.268290	0.005443	0.002422	-0.008723	1.000000	0.000068	0.000030	-0.000109	-0.045220	0.067133	0.996719	-0.259306	0.962752	-0.076610	-0.964736	-0.261920	-0.026128
11052		9.820369	-0.752272	-0.214373	0.011303	0.000796	-0.006301	1.000000	0.000141	0.000010	-0.000079	-0.045468	0.067101	0.996710	-0.259697	0.962643	-0.076654	-0.964619	-0.262328	-0.026344
11053		9.821528	-0.749195	-0.254398	0.003758	-0.000318	-0.007326	1.000000	0.000047	-0.000004	-0.000092	-0.045692	0.067104	0.996699	-0.259882	0.962588	-0.076721	-0.964559	-0.262530	-0.026544
11054		9.816144	-0.778426	-0.279316	0.007712	-0.000189	-0.008235	1.000000	0.000096	-0.000002	-0.000103	-0.045820	0.067009	0.996700	-0.260086	0.962537	-0.076668	-0.964498	-0.262740	-0.026675
11055		9.795179	-0.772993	-0.274602	0.009474	0.002040	-0.009214	1.000000	0.000118	0.000025	-0.000115	-0.045886	0.067055	0.996694	-0.260319	0.962468	-0.076737	-0.964432	-0.262980	-0.026708
11056		9.824709	-0.743487	-0.283832	0.009407	0.003828	-0.008178	1.000000	0.000118	0.000048	-0.000102	-0.045791	0.067121	0.996694	-0.260455	0.962428	-0.076779	-0.964400	-0.263109	-0.026589
11057		9.813123	-0.785090	-0.218502	0.005596	0.001401	-0.007887	1.000000	0.000070	0.000018	-0.000099	-0.045937	0.067131	0.996686	-0.260642	0.962373	-0.076833	-0.964342	-0.263308	-0.026712
11058		9.824781	-0.755896	-0.205027	0.004644	0.000793	-0.007815	1.000000	0.000058	0.000010	-0.000098	-0.046065	0.067050	0.996686	-0.260764	0.962344	-0.076792	-0.964303	-0.263437	-0.026846
11059		9.793570	-0.760520	-0.331280	-0.000406	0.002354	-0.006216	1.000000	-0.000005	0.000029	-0.000078	-0.046185	0.067018	0.996682	-0.260793	0.962336	-0.076793	-0.964289	-0.263474	-0.026968
11060		9.797164	-0.801435	-0.258436	0.007210	0.003364	-0.011155	1.000000	0.000090	0.000042	-0.000139	-0.046262	0.066914	0.996686	-0.261027	0.962278	-0.076720	-0.964222	-0.263711	-0.027050
11061		9.812471	-0.727555	-0.216916	0.007287	0.001173	-0.005807	1.000000	0.000091	0.000015	-0.000073	-0.046408	0.066986	0.996674	-0.261272	0.962202	-0.076835	-0.964149	-0.263969	-0.027152
11062		9.828197	-0.720592	-0.298832	0.006406	0.001739	-0.010247	1.000000	0.000080	0.000022	-0.000128	-0.046473	0.066859	0.996680	-0.261372	0.962183	-0.076732	-0.964119	-0.264070	-0.027240
11063		9.807900	-0.789490	-0.277354	-0.000953	0.004036	-0.008336	1.000000	-0.000012	0.000050	-0.000104	-0.046593	0.066822	0.996676	-0.261433	0.962167	-0.076730	-0.964096	-0.264139	-0.027361
11064		9.812695	-0.769128	-0.223518	0.002490	0.003476	-0.010142	1.000000	0.000031	0.000043	-0.000127	-0.046615	0.066766	0.996679	-0.261510	0.962150	-0.076683	-0.964075	-0.264216	-0.027391
11065		9.808422	-0.725148	-0.254485	0.000257	0.003706	-0.009412	1.000000	0.000003	0.000046	-0.000118	-0.046706	0.066713	0.996678	-0.261596	0.962128	-0.076659	-0.964047	-0.264308	-0.027485
11066		9.808989	-0.746360	-0.278152	0.002456	0.002889	-0.007885	1.000000	0.000031	0.000036	-0.000099	-0.046638	0.066735	0.996680	-0.261541	0.962143	-0.076661	-0.964065	-0.264248	-0.027419
11067		9.808104	-0.745754	-0.237155	0.003923	0.002905	-0.008511	1.000000	0.000049	0.000036	-0.000106	-0.046520	0.066756	0.996684	-0.261489	0.962158	-0.076649	-0.964085	-0.264188	-0.027303
11068		9.829422	-0.746996	-0.241117	0.005753	-0.000900	-0.008501	1.000000	0.000072	-0.000011	-0.000106	-0.046616	0.066721	0.996682	-0.261581	0.962134	-0.076643	-0.964055	-0.264286	-0.027398
11069		9.803448	-0.736749	-0.264971	0.000625	0.002448	-0.005870	1.000000	0.000008	0.000031	-0.000073	-0.046599	0.066749	0.996681	-0.261544	0.962142	-0.076664	-0.964066	-0.264249	-0.027377
11070		9.812883	-0.742709	-0.257454	0.010702	0.000030	-0.005352	1.000000	0.000134	0.000000	-0.000067	-0.046690	0.066760	0.996676	-0.261782	0.962074	-0.076706	-0.963997	-0.264493	-0.027443
11071		9.810308	-0.772889	-0.312848	0.007039	0.000828	-0.006253	1.000000	0.000088	0.000010	-0.000078	-0.046843	0.066773	0.996668	-0.261993	0.962012	-0.076764	-0.963932	-0.264716	-0.027569
11072		9.822452	-0.747040	-0.249588	0.017010	0.001293	-0.007374	1.000000	0.000213	0.000016	-0.000092	-0.046973	0.066712	0.996666	-0.262372	0.961910	-0.076751	-0.963823	-0.265102	-0.027680
11073		9.844764	-0.715348	-0.207383	0.012431	-0.000894	-0.006979	1.000000	0.000155	-0.000011	-0.000087	-0.046971	0.066657	0.996670	-0.262505	0.961877	-0.076701	-0.963787	-0.265233	-0.027682
11074		9.776187	-0.747350	-0.231958	0.009753	-0.003539	-0.001799	1.000000	0.000122	-0.000044	-0.000022	-0.047297	0.066743	0.996649	-0.262808	0.961780	-0.076879	-0.963688	-0.265563	-0.027949
11075		9.787809	-0.731370	-0.231875	0.016684	-0.004466	-0.001281	1.000000	0.000209	-0.000056	-0.000016	-0.047577	0.066851	0.996628	-0.263209	0.961655	-0.077070	-0.963565	-0.265988	-0.028157
11076		9.797318	-0.750516	-0.237696	0.026516	-0.004663	0.001694	1.000000	0.000331	-0.000058	0.000021	-0.047939	0.067015	0.996600	-0.263896	0.961445	-0.077345	-0.963359	-0.266707	-0.028406
11077		9.830646	-0.686780	-0.323381	0.022340	-0.006233	0.004828	1.000000	0.000279	-0.000078	0.000060	-0.048140	0.067257	0.996574	-0.264264	0.961320	-0.077643	-0.963248	-0.267097	-0.028505
11078		9.847516	-0.760547	-0.340417	0.010970	-0.004262	0.003513	1.000000	0.000137	-0.000053	0.000044	-0.048247	0.067530	0.996550	-0.264343	0.961274	-0.077937	-0.963221	-0.267192	-0.028528
11079		9.812819	-0.760100	-0.334613	0.006165	-0.000684	0.000621	1.000000	0.000077	-0.000009	0.000008	-0.048312	0.067702	0.996535	-0.264386	0.961248	-0.078122	-0.963206	-0.267245	-0.028541
11080		9.788957	-0.816048	-0.320200	0.005615	0.000997	-0.001502	1.000000	0.000070	0.000012	-0.000019	-0.048465	0.067877	0.996516	-0.264553	0.961184	-0.078336	-0.963153	-0.267428	-0.028627
11081		9.814747	-0.773012	-0.336567	0.002313	0.003502	-0.002344	1.000000	0.000029	0.000044	-0.000029	-0.048564	0.068082	0.996497	-0.264666	0.961134	-0.078565	-0.963116	-0.267555	-0.028657
11082		9.799286	-0.776824	-0.253075	0.004773	0.004704	-0.005300	1.000000	0.000060	0.000059	-0.000066	-0.048646	0.068170	0.996487	-0.264846	0.961076	-0.078677	-0.963063	-0.267743	-0.028698
11083		9.821398	-0.766158	-0.284046	-0.000989	0.006006	-0.003186	1.000000	-0.000012	0.000075	-0.000040	-0.048657	0.068244	0.996481	-0.264788	0.961086	-0.078749	-0.963078	-0.267688	-0.028694
11084		9.822796	-0.775583	-0.334847	-0.000767	0.007440	-0.005413	1.000000	-0.000010	0.000093	-0.000068	-0.048469	0.068399	0.996480	-0.264661	0.961113	-0.078845	-0.963123	-0.267551	-0.028482
11085		9.807403	-0.751287	-0.316164	-0.000325	0.007353	-0.006384	1.000000	-0.000004	0.000092	-0.000080	-0.048307	0.068387	0.996489	-0.264493	0.961164	-0.078785	-0.963177	-0.267370	-0.028343
11086		9.811916	-0.779461	-0.269823	0.000997	0.009666	-0.006396	1.000000	0.000012	0.000121	-0.000080	-0.048310	0.068333	0.996492	-0.264555	0.961151	-0.078735	-0.963160	-0.267431	-0.028355
11087		9.800453	-0.733751	-0.247473	0.005808	0.009043	-0.006984	1.000000	0.000073	0.000113	-0.000087	-0.048181	0.068296	0.996501	-0.264592	0.961147	-0.078667	-0.963156	-0.267456	-0.028239
11088		9.827340	-0.716152	-0.236994	0.003346	0.007840	-0.004029	1.000000	0.000042	0.000098	-0.000050	-0.048155	0.068445	0.996492	-0.264705	0.961104	-0.078806	-0.963126	-0.267572	-0.028164
11089		9.803299	-0.780142	-0.282631	0.002134	0.008172	-0.002955	1.000000	0.000027	0.000102	-0.000037	-0.048049	0.068509	0.996493	-0.264640	0.961119	-0.078837	-0.963150	-0.267500	-0.028050
11090		9.815033	-0.763575	-0.279634	0.002688	0.009445	-0.004314	1.000000	0.000034	0.000118	-0.000054	-0.047919	0.068626	0.996491	-0.264634	0.961115	-0.078915	-0.963158	-0.267487	-0.027895
11091		9.797792	-0.785939	-0.278506	0.004674	0.008866	-0.005490	1.000000	0.000058	0.000111	-0.000069	-0.047936	0.068675	0.996487	-0.264818	0.961059	-0.078973	-0.963106	-0.267674	-0.027882
11092		9.822298	-0.731522	-0.240895	0.006290	0.007868	-0.005276	1.000000	0.000079	0.000098	-0.000066	-0.047844	0.068676	0.996491	-0.264885	0.961042	-0.078951	-0.963092	-0.267733	-0.027789
11093		9.808667	-0.741789	-0.298882	-0.000031	0.007894	-0.001810	1.000000	-0.000000	0.000099	-0.000023	-0.047872	0.068782	0.996482	-0.264914	0.961025	-0.079061	-0.963083	-0.267767	-0.027785
11094		9.806246	-0.752436	-0.278441	0.001955	0.007316	-0.002985	1.000000	0.000024	0.000091	-0.000037	-0.047800	0.068918	0.996477	-0.264909	0.961018	-0.079173	-0.963088	-0.267760	-0.027680
11095		9.818677	-0.750804	-0.238331	0.000814	0.007142	-0.001493	1.000000	0.000010	0.000089	-0.000019	-0.047903	0.068961	0.996469	-0.264965	0.960996	-0.079244	-0.963067	-0.267826	-0.027762
11096		9.787393	-0.773417	-0.285493	0.004339	0.007359	-0.001423	1.000000	0.000054	0.000092	-0.000018	-0.047886	0.069165	0.996455	-0.265089	0.960946	-0.079439	-0.963034	-0.267954	-0.027681
11097		9.844684	-0.767195	-0.272298	0.009850	0.006998	-0.002527	1.000000	0.000123	0.000087	-0.000032	-0.047851	0.069258	0.996450	-0.265271	0.960889	-0.079525	-0.962986	-0.268135	-0.027608
11098		9.837999	-0.748104	-0.296117	0.006255	0.007286	-0.003017	1.000000	0.000078	0.000091	-0.000038	-0.047808	0.069342	0.996447	-0.265368	0.960856	-0.079597	-0.962961	-0.268231	-0.027535
11099		9.793510	-0.763607	-0.279256	0.005784	0.008456	-0.004722	1.000000	0.000072	0.000106	-0.000059	-0.047736	0.069466	0.996442	-0.265496	0.960812	-0.079701	-0.962930	-0.268356	-0.027423
11100		9.804859	-0.783256	-0.272878	0.009087	0.005956	-0.003873	1.000000	0.000114	0.000074	-0.000048	-0.047682	0.069651	0.996431	-0.265694	0.960743	-0.079870	-0.962877	-0.268555	-0.027304
11101		9.797951	-0.752090	-0.284118	0.001454	0.012140	-0.004470	1.000000	0.000018	0.000152	-0.000056	-0.047526	0.069802	0.996428	-0.265717	0.960728	-0.079975	-0.962879	-0.268569	-0.027112
11102		9.815758	-0.739243	-0.292506	0.003546	0.008685	-0.003997	1.000000	0.000044	0.000109	-0.000050	-0.047538	0.069920	0.996419	-0.265868	0.960676	-0.080096	-0.962837	-0.268724	-0.027079
11103		9.812779	-0.726109	-0.247277	0.007329	0.009249	-0.003474	1.000000	0.000092	0.000116	-0.000043	-0.047436	0.070000	0.996418	-0.265971	0.960643	-0.080149	-0.962813	-0.268820	-0.026951
11104		9.816281	-0.749671	-0.300005	0.009340	0.008874	-0.000522	1.000000	0.000117	0.000111	-0.000007	-0.047396	0.070178	0.996408	-0.266170	0.960574	-0.080315	-0.962760	-0.269021	-0.026848
11105		9.811546	-0.783599	-0.272677	0.013058	0.008656	-0.001866	1.000000	0.000163	0.000108	-0.000023	-0.047353	0.070320	0.996400	-0.266461	0.960483	-0.080448	-0.962682	-0.269311	-0.026744
11106		9.804967	-0.755955	-0.234222	0.014160	0.008251	-0.001099	1.000000	0.000177	0.000103	-0.000014	-0.047337	0.070514	0.996387	-0.266806	0.960371	-0.080641	-0.962587	-0.269659	-0.026647
11107		9.814582	-0.783637	-0.298516	0.001745	0.011399	-0.001348	1.000000	0.000022	0.000142	-0.000017	-0.047353	0.070767	0.996368	-0.266971	0.960304	-0.080893	-0.962541	-0.269832	-0.026580
11108		9.803776	-0.813402	-0.259093	0.009394	0.009447	-0.002777	1.000000	0.000117	0.000118	-0.000035	-0.047310	0.070878	0.996362	-0.267178	0.960237	-0.080994	-0.962485	-0.270038	-0.026491
11109		9.833793	-0.760701	-0.282663	0.005352	0.009822	-0.002302	1.000000	0.000067	0.000123	-0.000029	-0.047242	0.070976	0.996359	-0.267277	0.960203	-0.081073	-0.962461	-0.270133	-0.026391
11110		9.810465	-0.779761	-0.269215	0.004809	0.012782	-0.002980	1.000000	0.000060	0.000160	-0.000037	-0.047112	0.071108	0.996355	-0.267389	0.960164	-0.081169	-0.962436	-0.270238	-0.026222
11111		9.821246	-0.728019	-0.228987	0.004957	0.010483	-0.003589	1.000000	0.000062	0.000131	-0.000045	-0.047045	0.071279	0.996346	-0.267537	0.960110	-0.081319	-0.962398	-0.270386	-0.026099
11112		9.825513	-0.775056	-0.305620	0.003552	0.011251	-0.001101	1.000000	0.000044	0.000141	-0.000014	-0.047024	0.071465	0.996334	-0.267675	0.960057	-0.081496	-0.962361	-0.270526	-0.026017
11113		9.792508	-0.766456	-0.225420	0.007599	0.010875	-0.001572	1.000000	0.000095	0.000136	-0.000020	-0.047002	0.071669	0.996320	-0.267906	0.959975	-0.081693	-0.962298	-0.270760	-0.025920
11114		9.813515	-0.766757	-0.276267	0.008298	0.012420	-0.000644	1.000000	0.000104	0.000155	-0.000008	-0.046919	0.071842	0.996312	-0.268119	0.959903	-0.081843	-0.962243	-0.270970	-0.025776
11115		9.818048	-0.759937	-0.232799	0.014689	0.008939	-0.000185	1.000000	0.000184	0.000112	-0.000002	-0.046773	0.072006	0.996307	-0.268329	0.959834	-0.081967	-0.962191	-0.271172	-0.025574
11116		9.814694	-0.753810	-0.298794	0.005289	0.011608	-0.001272	1.000000	0.000066	0.000145	-0.000016	-0.046681	0.072235	0.996295	-0.268473	0.959777	-0.082166	-0.962156	-0.271313	-0.025410
11117		9.813438	-0.802653	-0.263773	0.009709	0.012935	-0.001682	1.000000	0.000121	0.000162	-0.000021	-0.046556	0.072354	0.996292	-0.268677	0.959712	-0.082253	-0.962104	-0.271510	-0.025241
11118		9.816368	-0.746112	-0.221095	0.009029	0.011597	0.001515	1.000000	0.000113	0.000145	0.000019	-0.046495	0.072535	0.996281	-0.268853	0.959649	-0.082415	-0.962058	-0.271685	-0.025118
11119		9.809725	-0.776197	-0.252302	0.006975	0.011393	0.000816	1.000000	0.000087	0.000142	0.000010	-0.046414	0.072813	0.996265	-0.269018	0.959581	-0.082665	-0.962016	-0.271850	-0.024950
11120		9.809090	-0.800893	-0.233307	0.012687	0.011879	-0.000239	1.000000	0.000159	0.000148	-0.000003	-0.046315	0.073064	0.996251	-0.269320	0.959477	-0.082888	-0.961936	-0.272149	-0.024760
11121		9.811451	-0.777998	-0.236389	0.013063	0.013581	-0.000179	1.000000	0.000163	0.000170	-0.000002	-0.046228	0.073344	0.996235	-0.269679	0.959354	-0.083143	-0.961840	-0.272508	-0.024570
11122		9.810111	-0.827068	-0.201045	0.013397	0.012134	-0.000756	1.000000	0.000167	0.000152	-0.000009	-0.046175	0.073597	0.996219	-0.270045	0.959231	-0.083381	-0.961740	-0.272874	-0.024418
11123		9.848241	-0.744125	-0.230372	0.011109	0.009218	-0.000675	1.000000	0.000139	0.000115	-0.000008	-0.046157	0.073804	0.996204	-0.270325	0.959134	-0.083583	-0.961662	-0.273156	-0.024320
11124		9.815866	-0.768556	-0.236879	0.009326	0.008286	0.001751	1.000000	0.000117	0.000104	0.000022	-0.046131	0.073939	0.996195	-0.270474	0.959081	-0.083709	-0.961622	-0.273306	-0.024244
11125		9.799269	-0.815985	-0.260062	0.008678	0.008598	0.000012	1.000000	0.000108	0.000107	0.000000	-0.046117	0.074193	0.996177	-0.270677	0.959002	-0.083956	-0.961565	-0.273514	-0.024144
11126		9.802715	-0.828425	-0.300567	0.012662	0.008722	-0.000870	1.000000	0.000158	0.000109	-0.000011	-0.046114	0.074355	0.996165	-0.270988	0.958900	-0.084118	-0.961478	-0.273828	-0.024069
11127		9.833037	-0.781162	-0.224574	0.014895	0.010849	-0.002816	1.000000	0.000186	0.000136	-0.000035	-0.046087	0.074499	0.996156	-0.271368	0.958781	-0.084259	-0.961372	-0.274208	-0.023971
11128		9.816063	-0.765518	-0.276361	0.012455	0.011520	-0.000684	1.000000	0.000156	0.000144	-0.000009	-0.046031	0.074745	0.996140	-0.271694	0.958668	-0.084488	-0.961282	-0.274534	-0.023821
11129		9.829297	-0.799393	-0.271107	0.014897	0.012135	-0.001368	1.000000	0.000186	0.000152	-0.000017	-0.045913	0.074883	0.996135	-0.271992	0.958574	-0.084596	-0.961204	-0.274825	-0.023644
11130		9.818272	-0.780891	-0.222843	0.009236	0.012220	-0.002579	1.000000	0.000115	0.000153	-0.000032	-0.045860	0.075038	0.996126	-0.272234	0.958493	-0.084737	-0.961138	-0.275065	-0.023529
11131		9.821498	-0.831864	-0.208831	0.007312	0.012298	-0.000995	1.000000	0.000091	0.000154	-0.000012	-0.045764	0.075218	0.996116	-0.272400	0.958432	-0.084887	-0.961095	-0.275227	-0.023372
11132		9.821934	-0.792750	-0.259092	0.001506	0.014680	-0.001603	1.000000	0.000019	0.000184	-0.000020	-0.045516	0.075388	0.996115	-0.272334	0.958443	-0.084981	-0.961126	-0.275144	-0.023094
11133		9.811292	-0.834112	-0.230927	0.009244	0.012217	-0.002575	1.000000	0.000116	0.000153	-0.000032	-0.045366	0.075572	0.996108	-0.272512	0.958380	-0.085120	-0.961082	-0.275313	-0.022884
11134		9.822207	-0.793919	-0.202546	0.007944	0.014127	-0.004609	1.000000	0.000099	0.000177	-0.000058	-0.045124	0.075729	0.996107	-0.272639	0.958336	-0.085208	-0.961058	-0.275423	-0.022598
11135		9.819692	-0.801473	-0.230028	0.009751	0.013981	-0.004353	1.000000	0.000122	0.000175	-0.000054	-0.045002	0.075888	0.996100	-0.272909	0.958248	-0.085333	-0.960987	-0.275685	-0.022413
11136		9.827648	-0.803402	-0.277986	0.006388	0.016976	-0.005648	1.000000	0.000080	0.000212	-0.000071	-0.044712	0.076028	0.996103	-0.273008	0.958215	-0.085391	-0.960972	-0.275762	-0.022088
11137		9.827391	-0.792722	-0.211933	0.012320	0.015947	-0.005424	1.000000	0.000154	0.000199	-0.000068	-0.044454	0.076165	0.996104	-0.273251	0.958139	-0.085457	-0.960915	-0.275986	-0.021781
11138		9.814760	-0.771711	-0.172565	0.009439	0.014131	-0.005220	1.000000	0.000118	0.000177	-0.000065	-0.044244	0.076226	0.996108	-0.273403	0.958096	-0.085461	-0.960881	-0.276120	-0.021549
11139		9.799194	-0.793645	-0.210279	0.009119	0.014505	-0.001966	1.000000	0.000114	0.000181	-0.000025	-0.044000	0.076420	0.996104	-0.273544	0.958045	-0.085583	-0.960853	-0.276244	-0.021250
11140		9.827842	-0.790008	-0.200865	0.009715	0.012117	-0.003535	1.000000	0.000121	0.000151	-0.000044	-0.043873	0.076502	0.996104	-0.273725	0.957989	-0.085631	-0.960807	-0.276415	-0.021089
11141		9.828722	-0.815088	-0.172366	0.003675	0.010499	-0.004814	1.000000	0.000046	0.000131	-0.000060	-0.043760	0.076616	0.996100	-0.273783	0.957965	-0.085710	-0.960796	-0.276465	-0.020944
11142		9.820825	-0.794237	-0.205419	0.002848	0.008888	-0.003905	1.000000	0.000036	0.000111	-0.000049	-0.043659	0.076748	0.996094	-0.273797	0.957952	-0.085810	-0.960796	-0.276474	-0.020810
11143		9.810919	-0.810646	-0.194479	0.005427	0.008498	-0.003742	1.000000	0.000068	0.000106	-0.000047	-0.043607	0.076807	0.996092	-0.273895	0.957920	-0.085855	-0.960770	-0.276569	-0.020735
11144		9.810757	-0.795498	-0.229846	0.003813	0.009492	-0.003972	1.000000	0.000048	0.000119	-0.000050	-0.043576	0.076916	0.996085	-0.273997	0.957882	-0.085953	-0.960743	-0.276670	-0.020666
11145		9.820886	-0.827507	-0.194414	0.011545	0.009388	-0.006160	1.000000	0.000144	0.000117	-0.000077	-0.043473	0.076986	0.996084	-0.274231	0.957811	-0.085997	-0.960681	-0.276896	-0.020527
11146		9.829965	-0.787535	-0.127059	0.007244	0.007061	-0.004926	1.000000	0.000091	0.000088	-0.000062	-0.043515	0.077047	0.996077	-0.274422	0.957750	-0.086071	-0.960624	-0.277090	-0.020534
11147		9.819975	-0.787258	-0.204007	0.004092	0.006190	-0.003732	1.000000	0.000051	0.000077	-0.000047	-0.043541	0.077112	0.996071	-0.274495	0.957722	-0.086142	-0.960602	-0.277168	-0.020533
11148		9.835554	-0.797401	-0.206901	0.005198	0.004498	-0.004400	1.000000	0.000065	0.000056	-0.000055	-0.043588	0.077152	0.996066	-0.274579	0.957694	-0.086195	-0.960576	-0.277255	-0.020559
11149		9.805176	-0.786055	-0.209118	0.007259	0.004703	-0.003690	1.000000	0.000091	0.000059	-0.000046	-0.043641	0.077241	0.996057	-0.274736	0.957639	-0.086299	-0.960529	-0.277419	-0.020572
11150		9.816757	-0.819706	-0.165787	0.010765	0.000480	-0.005665	1.000000	0.000135	0.000006	-0.000071	-0.043798	0.077272	0.996048	-0.274980	0.957562	-0.086378	-0.960452	-0.277676	-0.020691
11151		9.815096	-0.802795	-0.212580	0.009794	0.001166	-0.004155	1.000000	0.000122	0.000015	-0.000052	-0.043845	0.077318	0.996042	-0.275110	0.957519	-0.086438	-0.960413	-0.277811	-0.020711
11152		9.804363	-0.827007	-0.274314	0.007459	0.004260	-0.005106	1.000000	0.000093	0.000053	-0.000064	-0.043901	0.077366	0.996036	-0.275258	0.957471	-0.086503	-0.960368	-0.277964	-0.020738
11153		9.834116	-0.778437	-0.199844	0.012554	0.003982	-0.005197	1.000000	0.000157	0.000050	-0.000065	-0.044001	0.077396	0.996029	-0.275539	0.957384	-0.086566	-0.960282	-0.278254	-0.020800
11154		9.825208	-0.767973	-0.255558	0.004097	0.006186	-0.003733	1.000000	0.000051	0.000077	-0.000047	-0.044139	0.077423	0.996021	-0.275680	0.957338	-0.086633	-0.960236	-0.278406	-0.020912
11155		9.819331	-0.777193	-0.204612	0.008162	0.005806	-0.004178	1.000000	0.000102	0.000073	-0.000052	-0.044179	0.077553	0.996009	-0.275853	0.957275	-0.086773	-0.960184	-0.278586	-0.020898
11156		9.792614	-0.829191	-0.207746	0.007399	0.003696	-0.002847	1.000000	0.000092	0.000046	-0.000036	-0.044270	0.077672	0.995996	-0.275996	0.957221	-0.086916	-0.960139	-0.278739	-0.020939
11157		9.818187	-0.822456	-0.219568	0.006359	0.004885	-0.001759	1.000000	0.000079	0.000061	-0.000022	-0.044347	0.077795	0.995983	-0.276107	0.957176	-0.087058	-0.960103	-0.278858	-0.020968
11158		9.813569	-0.769059	-0.238649	0.004610	0.006882	-0.002835	1.000000	0.000058	0.000086	-0.000035	-0.044230	0.077895	0.995980	-0.276085	0.957177	-0.087121	-0.960115	-0.278828	-0.020831
11159		9.832351	-0.830807	-0.230090	0.003647	0.006277	-0.002768	1.000000	0.000046	0.000078	-0.000035	-0.044267	0.077973	0.995972	-0.276136	0.957154	-0.087207	-0.960099	-0.278884	-0.020839
11160		9.806742	-0.787986	-0.207537	0.005586	0.006193	-0.004343	1.000000	0.000070	0.000077	-0.000054	-0.044246	0.077974	0.995973	-0.276198	0.957136	-0.087204	-0.960082	-0.278944	-0.020813
11161		9.824839	-0.823398	-0.224633	0.003261	0.006930	-0.004061	1.000000	0.000041	0.000087	-0.000051	-0.044226	0.078036	0.995969	-0.276220	0.957125	-0.087258	-0.960076	-0.278966	-0.020775
11162		9.823977	-0.798495	-0.198744	0.003650	0.007338	-0.005447	1.000000	0.000046	0.000092	-0.000068	-0.044207	0.078059	0.995968	-0.276260	0.957112	-0.087276	-0.960066	-0.279005	-0.020747
11163		9.815867	-0.814054	-0.228429	0.002553	0.006674	-0.003545	1.000000	0.000032	0.000083	-0.000044	-0.044229	0.078147	0.995960	-0.276281	0.957098	-0.087367	-0.960059	-0.279029	-0.020741
11164		9.794708	-0.810245	-0.222684	0.004603	0.008173	-0.001391	1.000000	0.000058	0.000102	-0.000017	-0.044229	0.078296	0.995949	-0.276347	0.957065	-0.087512	-0.960040	-0.279098	-0.020693
11165		9.820016	-0.805535	-0.184152	0.008694	0.005207	-0.004716	1.000000	0.000109	0.000065	-0.000059	-0.044278	0.078343	0.995943	-0.276515	0.957011	-0.087574	-0.959989	-0.279271	-0.020711
11166		9.808443	-0.806048	-0.220934	0.003909	0.007684	-0.004998	1.000000	0.000049	0.000096	-0.000062	-0.044265	0.078374	0.995941	-0.276574	0.956991	-0.087602	-0.959973	-0.279329	-0.020685
11167		9.802840	-0.812654	-0.219447	0.005207	0.006843	-0.005634	1.000000	0.000065	0.000086	-0.000070	-0.044310	0.078394	0.995937	-0.276693	0.956954	-0.087636	-0.959936	-0.279452	-0.020712
11168		9.826166	-0.793937	-0.178542	0.006115	0.005595	-0.004883	1.000000	0.000076	0.000070	-0.000061	-0.044374	0.078407	0.995933	-0.276835	0.956910	-0.087669	-0.959892	-0.279600	-0.020756
11169		9.821048	-0.812686	-0.189570	0.002180	0.004971	-0.003600	1.000000	0.000027	0.000062	-0.000045	-0.044498	0.078509	0.995920	-0.276883	0.956884	-0.087803	-0.959873	-0.279660	-0.020842
11170		9.801740	-0.807661	-0.224586	0.004767	0.005642	-0.006110	1.000000	0.000060	0.000071	-0.000076	-0.044536	0.078520	0.995917	-0.276965	0.956858	-0.087826	-0.959847	-0.279746	-0.020867
11171		9.822722	-0.831814	-0.260234	0.004944	0.007785	-0.004641	1.000000	0.000062	0.000097	-0.000058	-0.044542	0.078552	0.995914	-0.277054	0.956829	-0.087860	-0.959821	-0.279836	-0.020856
11172		9.826684	-0.788906	-0.172207	0.005870	0.006303	-0.008012	1.000000	0.000073	0.000079	-0.000100	-0.044570	0.078490	0.995918	-0.277182	0.956796	-0.087811	-0.959783	-0.279964	-0.020889
11173		9.838308	-0.771779	-0.169820	0.002625	0.006169	-0.003123	1.000000	0.000033	0.000077	-0.000039	-0.044629	0.078548	0.995911	-0.277234	0.956774	-0.087885	-0.959765	-0.280023	-0.020924
11174		9.802110	-0.788818	-0.256040	-0.000327	0.002504	-0.002110	1.000000	-0.000004	0.000031	-0.000026	-0.044766	0.078656	0.995896	-0.277171	0.956780	-0.088025	-0.959777	-0.279975	-0.021030
11175		9.796594	-0.810216	-0.217966	0.003155	0.003221	-0.002427	1.000000	0.000039	0.000040	-0.000030	-0.044810	0.078759	0.995886	-0.277151	0.956776	-0.088136	-0.959781	-0.279960	-0.021045
11176		9.811990	-0.856643	-0.216860	0.004061	0.005385	-0.005594	1.000000	0.000051	0.000067	-0.000070	-0.044753	0.078737	0.995890	-0.277156	0.956777	-0.088100	-0.959782	-0.279960	-0.020997
11177		9.828049	-0.844099	-0.185964	0.007545	0.006102	-0.005910	1.000000	0.000094	0.000076	-0.000074	-0.044677	0.078762	0.995892	-0.277239	0.956753	-0.088104	-0.959762	-0.280037	-0.020909
11178		9.810723	-0.767734	-0.219691	0.004520	0.005289	-0.006558	1.000000	0.000057	0.000066	-0.000082	-0.044627	0.078787	0.995892	-0.277253	0.956748	-0.088114	-0.959760	-0.280047	-0.020853
11179		9.817306	-0.784384	-0.192185	0.007678	0.005101	-0.005065	1.000000	0.000096	0.000064	-0.000063	-0.044625	0.078788	0.995892	-0.277383	0.956710	-0.088117	-0.959723	-0.280175	-0.020839
11180		9.827042	-0.788428	-0.233387	0.003934	0.002975	-0.002519	1.000000	0.000049	0.000037	-0.000031	-0.044691	0.078859	0.995884	-0.277408	0.956695	-0.088205	-0.959712	-0.280208	-0.020879
11181		9.798444	-0.827163	-0.234171	0.008253	0.005298	-0.003744	1.000000	0.000103	0.000066	-0.000047	-0.044770	0.078936	0.995874	-0.277578	0.956636	-0.088305	-0.959659	-0.280387	-0.020917
11182		9.800955	-0.817214	-0.201459	0.010323	0.006563	-0.005709	1.000000	0.000129	0.000082	-0.000071	-0.044765	0.078918	0.995876	-0.277783	0.956578	-0.088290	-0.959600	-0.280590	-0.020899
11183		9.805355	-0.806559	-0.209081	0.008524	0.004352	-0.004734	1.000000	0.000107	0.000054	-0.000059	-0.044856	0.078919	0.995871	-0.277963	0.956523	-0.088321	-0.959544	-0.280777	-0.020970
11184		9.813808	-0.822934	-0.221726	0.005608	0.006184	-0.004338	1.000000	0.000070	0.000077	-0.000054	-0.044900	0.078948	0.995867	-0.278078	0.956485	-0.088363	-0.959508	-0.280897	-0.020993
11185		9.806749	-0.828086	-0.229999	0.007555	0.006097	-0.005908	1.000000	0.000094	0.000076	-0.000074	-0.044919	0.078985	0.995863	-0.278202	0.956445	-0.088408	-0.959472	-0.281022	-0.020989
11186		9.807812	-0.816139	-0.206723	0.006396	0.006992	-0.007110	1.000000	0.000080	0.000087	-0.000089	-0.044827	0.078940	0.995871	-0.278280	0.956429	-0.088340	-0.959453	-0.281091	-0.020906
11187		9.830712	-0.819281	-0.199297	0.006592	0.005492	-0.005842	1.000000	0.000082	0.000069	-0.000073	-0.044781	0.078938	0.995873	-0.278367	0.956405	-0.088326	-0.959430	-0.281173	-0.020855
11188		9.806971	-0.789225	-0.179543	0.002913	0.006272	-0.006796	1.000000	0.000036	0.000078	-0.000085	-0.044794	0.078912	0.995875	-0.278406	0.956395	-0.088306	-0.959418	-0.281213	-0.020871
11189		9.818126	-0.830342	-0.206537	0.006022	0.005291	-0.007163	1.000000	0.000075	0.000066	-0.000090	-0.044828	0.078871	0.995876	-0.278519	0.956365	-0.088279	-0.959384	-0.281328	-0.020904
11190		9.814090	-0.787774	-0.237890	0.001107	0.006412	-0.007061	1.000000	0.000014	0.000080	-0.000088	-0.044904	0.078885	0.995872	-0.278540	0.956355	-0.088314	-0.959374	-0.281356	-0.020971
11191		9.809854	-0.831599	-0.222894	0.005642	0.005940	-0.008456	1.000000	0.000071	0.000074	-0.000106	-0.044883	0.078850	0.995876	-0.278613	0.956338	-0.088276	-0.959354	-0.281426	-0.020954
11192		9.827499	-0.783412	-0.186745	0.004359	0.005484	-0.009263	1.000000	0.000054	0.000069	-0.000116	-0.044854	0.078840	0.995878	-0.278631	0.956334	-0.088259	-0.959350	-0.281441	-0.020928
11193		9.800443	-0.808367	-0.215414	0.003124	0.005824	-0.008208	1.000000	0.000039	0.000073	-0.000103	-0.044827	0.078791	0.995883	-0.278642	0.956336	-0.088205	-0.959348	-0.281449	-0.020915
11194		9.810009	-0.777217	-0.210673	0.005187	0.006034	-0.007492	1.000000	0.000065	0.000075	-0.000094	-0.044821	0.078777	0.995884	-0.278712	0.956317	-0.088191	-0.959328	-0.281518	-0.020907
11195		9.805800	-0.820987	-0.195690	0.006425	0.005693	-0.008546	1.000000	0.000080	0.000071	-0.000107	-0.044808	0.078717	0.995890	-0.278815	0.956292	-0.088132	-0.959299	-0.281618	-0.020902
11196		9.823126	-0.795432	-0.193289	0.009270	0.003310	-0.006680	1.000000	0.000116	0.000041	-0.000083	-0.044794	0.078685	0.995893	-0.278932	0.956261	-0.088100	-0.959266	-0.281732	-0.020887
11197		9.820246	-0.827131	-0.207036	0.007716	0.003799	-0.006497	1.000000	0.000096	0.000047	-0.000081	-0.044825	0.078706	0.995890	-0.279021	0.956232	-0.088130	-0.959238	-0.281824	-0.020903
11198		9.817610	-0.786265	-0.229363	0.009273	0.003309	-0.006679	1.000000	0.000116	0.000041	-0.000083	-0.044823	0.078672	0.995892	-0.279148	0.956198	-0.088100	-0.959201	-0.281951	-0.020898
11199		9.819107	-0.822472	-0.214312	0.009652	0.005008	-0.006625	1.000000	0.000121	0.000063	-0.000083	-0.044850	0.078652	0.995893	-0.279336	0.956144	-0.088092	-0.959145	-0.282139	-0.020913
11200		9.807941	-0.800525	-0.218214	0.005262	0.003182	-0.005827	1.000000	0.000066	0.000040	-0.000073	-0.044869	0.078679	0.995890	-0.279366	0.956132	-0.088124	-0.959136	-0.282172	-0.020921
11201		9.807535	-0.801113	-0.167703	0.007661	0.001948	-0.005677	1.000000	0.000096	0.000024	-0.000071	-0.044949	0.078628	0.995890	-0.279494	0.956097	-0.088101	-0.959095	-0.282306	-0.020999
11202		9.811449	-0.756267	-0.131046	0.003841	0.000326	-0.003558	1.000000	0.000048	0.000004	-0.000044	-0.045084	0.078677	0.995880	-0.279498	0.956088	-0.088186	-0.959087	-0.282322	-0.021114
11203		9.851002	-0.781004	-0.191237	0.002244	-0.002330	-0.003996	1.000000	0.000028	-0.000029	-0.000050	-0.045289	0.078693	0.995870	-0.279474	0.956088	-0.088260	-0.959085	-0.282316	-0.021308
11204		9.829932	-0.819939	-0.304305	0.001046	0.001156	-0.002322	1.000000	0.000013	0.000014	-0.000029	-0.045394	0.078799	0.995856	-0.279377	0.956104	-0.088388	-0.959108	-0.282232	-0.021387
11205		9.828046	-0.819338	-0.263691	0.006379	0.001491	-0.006484	1.000000	0.000080	0.000019	-0.000081	-0.045471	0.078726	0.995859	-0.279468	0.956082	-0.088342	-0.959078	-0.282328	-0.021472
11206		9.801935	-0.848428	-0.233768	0.005979	0.003435	-0.006341	1.000000	0.000075	0.000043	-0.000079	-0.045494	0.078733	0.995857	-0.279508	0.956069	-0.088356	-0.959065	-0.282369	-0.021489
11207		9.800198	-0.810746	-0.196883	0.005029	0.003878	-0.008957	1.000000	0.000063	0.000048	-0.000112	-0.045490	0.078639	0.995865	-0.279553	0.956065	-0.088265	-0.959052	-0.282412	-0.021508
11208		9.823580	-0.797461	-0.277638	-0.004096	0.004018	-0.008038	1.000000	-0.000051	0.000050	-0.000100	-0.045522	0.078560	0.995870	-0.279412	0.956112	-0.088196	-0.959092	-0.282273	-0.021573
11209		9.814581	-0.838453	-0.241830	0.002568	0.005609	-0.009530	1.000000	0.000032	0.000070	-0.000119	-0.045527	0.078489	0.995875	-0.279424	0.956115	-0.088129	-0.959088	-0.282283	-0.021598
11210		9.807846	-0.819784	-0.216753	0.001555	0.006550	-0.012568	1.000000	0.000019	0.000082	-0.000157	-0.045367	0.078410	0.995888	-0.279314	0.956158	-0.088006	-0.959127	-0.282158	-0.021477
11211		9.818738	-0.811308	-0.235999	0.002148	0.005455	-0.012685	1.000000	0.000027	0.000068	-0.000159	-0.045285	0.078246	0.995905	-0.279285	0.956183	-0.087825	-0.959140	-0.282119	-0.021448
11212		9.813375	-0.779702	-0.239237	0.000991	0.006344	-0.013889	1.000000	0.000012	0.000079	-0.000174	-0.045261	0.078069	0.995920	-0.279272	0.956203	-0.087648	-0.959145	-0.282100	-0.021476
11213		9.820233	-0.771888	-0.177816	0.002465	0.007651	-0.013054	1.000000	0.000031	0.000096	-0.000163	-0.045112	0.077976	0.995934	-0.279214	0.956233	-0.087515	-0.959169	-0.282026	-0.021366
11214		9.819038	-0.731356	-0.190245	0.002200	0.003906	-0.009580	1.000000	0.000028	0.000049	-0.000120	-0.045110	0.077912	0.995939	-0.279177	0.956249	-0.087452	-0.959179	-0.281988	-0.021385
11215		9.826190	-0.803729	-0.241832	0.002453	0.004257	-0.009131	1.000000	0.000031	0.000053	-0.000114	-0.045098	0.077879	0.995942	-0.279130	0.956266	-0.087416	-0.959194	-0.281940	-0.021387
11216		9.807303	-0.789350	-0.206157	0.006096	0.002687	-0.010030	1.000000	0.000076	0.000034	-0.000125	-0.045145	0.077766	0.995949	-0.279202	0.956254	-0.087323	-0.959171	-0.282013	-0.021458
11217		9.813860	-0.791207	-0.217046	0.006793	0.001894	-0.007863	1.000000	0.000085	0.000024	-0.000098	-0.045271	0.077704	0.995948	-0.279317	0.956222	-0.087301	-0.959131	-0.282137	-0.021585
11218		9.832524	-0.766750	-0.205911	0.007533	0.000850	-0.009813	1.000000	0.000094	0.000011	-0.000123	-0.045263	0.077637	0.995954	-0.279335	0.956223	-0.087235	-0.959126	-0.282153	-0.021594
11219		9.817007	-0.776175	-0.234803	0.006332	0.001990	-0.006900	1.000000	0.000079	0.000025	-0.000086	-0.045339	0.077619	0.995952	-0.279394	0.956205	-0.087240	-0.959105	-0.282219	-0.021667
11220		9.820000	-0.799739	-0.248481	0.006733	0.002390	-0.008285	1.000000	0.000084	0.000030	-0.000104	-0.045353	0.077507	0.995960	-0.279456	0.956196	-0.087138	-0.959087	-0.282279	-0.021706
11221		9.806733	-0.777735	-0.212799	0.007326	0.001296	-0.008401	1.000000	0.000092	0.000016	-0.000105	-0.045515	0.077423	0.995959	-0.279613	0.956153	-0.087107	-0.959033	-0.282448	-0.021871
11222		9.805455	-0.774329	-0.221861	0.010168	0.001269	-0.007772	1.000000	0.000127	0.000016	-0.000097	-0.045599	0.077381	0.995958	-0.279759	0.956112	-0.087093	-0.958987	-0.282600	-0.021950
11223		9.804912	-0.760451	-0.209485	0.010698	0.000673	-0.008310	1.000000	0.000134	0.000008	-0.000104	-0.045736	0.077289	0.995959	-0.279960	0.956057	-0.087048	-0.958922	-0.282810	-0.022089
11224		9.819255	-0.768127	-0.222831	0.012638	-0.000458	-0.007194	1.000000	0.000158	-0.000006	-0.000090	-0.045893	0.077167	0.995961	-0.280220	0.955987	-0.086982	-0.958838	-0.283081	-0.022249
11225		9.807861	-0.732402	-0.265789	0.008683	-0.001088	-0.005924	1.000000	0.000109	-0.000014	-0.000074	-0.046078	0.077105	0.995958	-0.280367	0.955944	-0.086979	-0.958786	-0.283242	-0.022430
11226		9.804599	-0.825091	-0.259632	0.003541	0.000470	-0.004424	1.000000	0.000044	0.000006	-0.000055	-0.046137	0.077160	0.995951	-0.280287	0.955961	-0.087046	-0.958807	-0.283168	-0.022478
11227		9.794148	-0.806510	-0.205163	0.005838	0.001280	-0.007797	1.000000	0.000073	0.000016	-0.000097	-0.046184	0.077077	0.995955	-0.280326	0.955956	-0.086981	-0.958793	-0.283209	-0.022544
11228		9.823971	-0.774944	-0.264574	0.002153	0.002046	-0.008759	1.000000	0.000027	0.000026	-0.000109	-0.046225	0.077005	0.995959	-0.280269	0.955978	-0.086922	-0.958808	-0.283154	-0.022608
11229		9.816337	-0.744846	-0.228571	0.000594	0.002532	-0.008580	1.000000	0.000007	0.000032	-0.000107	-0.046229	0.076881	0.995968	-0.280192	0.956011	-0.086802	-0.958830	-0.283075	-0.022654
11230		9.813082	-0.778346	-0.193044	0.005039	0.000481	-0.005026	1.000000	0.000063	0.000006	-0.000063	-0.046303	0.076898	0.995963	-0.280181	0.956011	-0.086839	-0.958830	-0.283070	-0.022720
11231		9.803076	-0.744489	-0.226381	0.006663	-0.000503	-0.004781	1.000000	0.000083	-0.000006	-0.000060	-0.046442	0.076865	0.995959	-0.280248	0.955991	-0.086849	-0.958804	-0.283149	-0.022857
11232		9.798940	-0.775347	-0.250654	0.009320	-0.001378	-0.004177	1.000000	0.000116	-0.000017	-0.000052	-0.046599	0.076876	0.995951	-0.280351	0.955955	-0.086906	-0.958766	-0.283266	-0.022994
11233		9.818769	-0.762202	-0.301750	0.002828	0.000214	-0.003911	1.000000	0.000035	0.000003	-0.000049	-0.046738	0.076935	0.995940	-0.280308	0.955959	-0.087001	-0.958772	-0.283236	-0.023115
11234		9.823458	-0.837815	-0.263754	0.004005	0.002712	-0.006630	1.000000	0.000050	0.000034	-0.000083	-0.046795	0.076928	0.995938	-0.280291	0.955963	-0.087010	-0.958774	-0.283224	-0.023172
11235		9.815548	-0.780737	-0.303067	0.003599	0.004655	-0.006490	1.000000	0.000045	0.000058	-0.000081	-0.046767	0.076899	0.995942	-0.280256	0.955977	-0.086973	-0.958785	-0.283186	-0.023157
11236		9.815270	-0.816690	-0.247466	0.004805	0.005851	-0.010645	1.000000	0.000060	0.000073	-0.000133	-0.046749	0.076774	0.995952	-0.280309	0.955973	-0.086849	-0.958771	-0.283234	-0.023170
11237		9.826754	-0.753137	-0.178694	0.004433	0.004150	-0.010695	1.000000	0.000055	0.000052	-0.000134	-0.046709	0.076656	0.995963	-0.280296	0.955988	-0.086725	-0.958777	-0.283215	-0.023167
11238		9.816285	-0.764973	-0.227927	-0.000400	0.005561	-0.008326	1.000000	-0.000005	0.000070	-0.000104	-0.046744	0.076611	0.995965	-0.280229	0.956011	-0.086689	-0.958794	-0.283151	-0.023219
11239		9.832027	-0.760148	-0.268798	0.002414	0.002392	-0.008309	1.000000	0.000030	0.000030	-0.000104	-0.046747	0.076560	0.995968	-0.280139	0.956042	-0.086640	-0.958820	-0.283060	-0.023244
11240		9.797499	-0.771467	-0.225010	0.002729	0.002247	-0.007437	1.000000	0.000034	0.000028	-0.000093	-0.046827	0.076508	0.995969	-0.280113	0.956052	-0.086612	-0.958824	-0.283040	-0.023338
11241		9.827561	-0.790095	-0.242091	0.002543	0.001397	-0.007462	1.000000	0.000032	0.000017	-0.000093	-0.046917	0.076471	0.995967	-0.280067	0.956066	-0.086600	-0.958833	-0.283000	-0.023439
11242		9.812116	-0.799806	-0.271037	0.004041	0.001409	-0.008063	1.000000	0.000051	0.000018	-0.000101	-0.047010	0.076398	0.995969	-0.280069	0.956070	-0.086557	-0.958828	-0.283009	-0.023549
11243		9.799412	-0.767290	-0.213963	0.007789	0.002491	-0.007920	1.000000	0.000097	0.000031	-0.000099	-0.047086	0.076301	0.995972	-0.280183	0.956042	-0.086488	-0.958791	-0.283127	-0.023638
11244		9.804534	-0.767972	-0.234625	0.001328	0.000435	-0.007846	1.000000	0.000017	0.000005	-0.000098	-0.047155	0.076211	0.995976	-0.280094	0.956075	-0.086419	-0.958814	-0.283042	-0.023738
11245		9.807672	-0.791257	-0.248638	0.001668	0.001329	-0.009654	1.000000	0.000021	0.000017	-0.000121	-0.047218	0.076107	0.995981	-0.280022	0.956104	-0.086335	-0.958832	-0.282973	-0.023833
11246		9.827542	-0.754133	-0.266158	0.003826	-0.000248	-0.009945	1.000000	0.000048	-0.000003	-0.000124	-0.047317	0.075952	0.995988	-0.280016	0.956116	-0.086215	-0.958828	-0.282972	-0.023972
11247		9.823093	-0.807865	-0.273689	0.000576	0.001714	-0.010437	1.000000	0.000007	0.000021	-0.000130	-0.047433	0.075814	0.995993	-0.279986	0.956134	-0.086114	-0.958832	-0.282949	-0.024126
11248		9.803888	-0.756681	-0.243071	0.002229	0.001770	-0.012871	1.000000	0.000028	0.000022	-0.000161	-0.047502	0.075609	0.996005	-0.279974	0.956153	-0.085937	-0.958831	-0.282938	-0.024251
11249		9.843370	-0.780917	-0.252745	-0.002764	0.001024	-0.011964	1.000000	-0.000035	0.000013	-0.000150	-0.047573	0.075396	0.996018	-0.279836	0.956211	-0.085748	-0.958868	-0.282801	-0.024391
11250		9.805667	-0.738410	-0.271030	-0.003915	-0.000435	-0.011925	1.000000	-0.000049	-0.000005	-0.000149	-0.047669	0.075211	0.996028	-0.279649	0.956280	-0.085593	-0.958918	-0.282618	-0.024553
11251		9.783504	-0.781233	-0.234639	-0.002383	0.000383	-0.010667	1.000000	-0.000030	0.000005	-0.000133	-0.047739	0.075018	0.996039	-0.279504	0.956337	-0.085425	-0.958957	-0.282475	-0.024687
11252		9.819985	-0.780122	-0.230391	0.001615	-0.000285	-0.013368	1.000000	0.000020	-0.000004	-0.000167	-0.047803	0.074791	0.996053	-0.279438	0.956374	-0.085223	-0.958973	-0.282409	-0.024818
11253		9.802136	-0.739059	-0.262080	-0.001253	-0.001306	-0.011318	1.000000	-0.000016	-0.000016	-0.000141	-0.047913	0.074620	0.996060	-0.279298	0.956427	-0.085085	-0.959008	-0.282275	-0.024984
11254		9.828149	-0.765925	-0.270773	-0.001564	-0.001164	-0.012190	1.000000	-0.000020	-0.000015	-0.000152	-0.048033	0.074454	0.996067	-0.279153	0.956481	-0.084957	-0.959044	-0.282136	-0.025159
11255		9.833008	-0.720835	-0.225445	0.000656	-0.001126	-0.008765	1.000000	0.000008	-0.000014	-0.000110	-0.048139	0.074304	0.996073	-0.279060	0.956519	-0.084840	-0.959066	-0.282048	-0.025311
11256		9.792081	-0.736868	-0.242777	0.003106	-0.005990	-0.008797	1.000000	0.000039	-0.000075	-0.000110	-0.048338	0.074172	0.996073	-0.278977	0.956549	-0.084767	-0.959080	-0.281979	-0.025546
11257		9.812247	-0.758778	-0.290674	0.005885	-0.005510	-0.008590	1.000000	0.000074	-0.000069	-0.000107	-0.048583	0.074049	0.996070	-0.279009	0.956544	-0.084720	-0.959059	-0.282029	-0.025812
11258		9.818800	-0.760647	-0.303071	0.003783	-0.002093	-0.009120	1.000000	0.000047	-0.000026	-0.000114	-0.048768	0.073944	0.996069	-0.279002	0.956550	-0.084670	-0.959051	-0.282035	-0.026018
11259		9.792996	-0.789240	-0.274319	0.008723	-0.003186	-0.009205	1.000000	0.000109	-0.000040	-0.000115	-0.048965	0.073772	0.996072	-0.279138	0.956520	-0.084565	-0.959002	-0.282183	-0.026244
11260		9.818968	-0.733431	-0.270652	0.007438	-0.001314	-0.011258	1.000000	0.000093	-0.000016	-0.000141	-0.049033	0.073555	0.996085	-0.279192	0.956521	-0.084377	-0.958983	-0.282236	-0.026365
11261		9.796742	-0.771399	-0.343123	0.001526	0.001506	-0.012355	1.000000	0.000019	0.000019	-0.000154	-0.049040	0.073405	0.996096	-0.279071	0.956569	-0.084231	-0.959017	-0.282112	-0.026425
11262		9.809840	-0.767575	-0.294499	0.014555	0.001507	-0.012268	1.000000	0.000182	0.000019	-0.000153	-0.049077	0.073235	0.996106	-0.279305	0.956514	-0.084085	-0.958947	-0.282344	-0.026488
11263		9.822558	-0.727446	-0.250186	0.011118	0.002610	-0.012784	1.000000	0.000139	0.000033	-0.000160	-0.049140	0.072984	0.996122	-0.279545	0.956463	-0.083868	-0.958874	-0.282582	-0.026599
11264		9.811391	-0.717952	-0.217097	0.007633	-0.000468	-0.011231	1.000000	0.000095	-0.000006	-0.000140	-0.049215	0.072818	0.996130	-0.279599	0.956459	-0.083732	-0.958855	-0.282638	-0.026712
11265		9.818413	-0.764444	-0.295271	0.001726	0.000011	-0.011082	1.000000	0.000022	0.000000	-0.000139	-0.049341	0.072611	0.996139	-0.279586	0.956477	-0.083568	-0.958852	-0.282630	-0.026893
11266		9.809314	-0.754807	-0.302652	0.006725	0.000764	-0.011989	1.000000	0.000084	0.000010	-0.000150	-0.049441	0.072389	0.996150	-0.279693	0.956462	-0.083387	-0.958816	-0.282739	-0.027042
11267		9.817215	-0.734569	-0.271046	0.006167	0.000549	-0.013308	1.000000	0.000077	0.000007	-0.000166	-0.049504	0.072160	0.996164	-0.279746	0.956463	-0.083186	-0.958797	-0.282791	-0.027162
11268		9.792354	-0.714081	-0.274403	0.004823	0.000351	-0.010003	1.000000	0.000060	0.000004	-0.000125	-0.049562	0.072049	0.996169	-0.279713	0.956481	-0.083095	-0.958804	-0.282760	-0.027252
11269		9.821973	-0.733425	-0.242219	0.004927	-0.001451	-0.011011	1.000000	0.000062	-0.000018	-0.000138	-0.049641	0.071876	0.996178	-0.279682	0.956503	-0.082950	-0.958808	-0.282731	-0.027379
11270		9.810749	-0.733393	-0.281226	0.005434	-0.003079	-0.008867	1.000000	0.000068	-0.000038	-0.000111	-0.049881	0.071760	0.996174	-0.279747	0.956487	-0.082909	-0.958777	-0.282812	-0.027636
11271		9.805093	-0.725492	-0.319980	0.003493	-0.001963	-0.009986	1.000000	0.000044	-0.000025	-0.000125	-0.050016	0.071629	0.996177	-0.279702	0.956508	-0.082820	-0.958783	-0.282775	-0.027805
11272		9.803803	-0.721762	-0.329794	-0.000172	-0.000408	-0.009095	1.000000	-0.000002	-0.000005	-0.000114	-0.050172	0.071472	0.996180	-0.279645	0.956534	-0.082712	-0.958792	-0.282726	-0.028005
11273		9.797771	-0.729178	-0.280398	0.003391	-0.000162	-0.008977	1.000000	0.000042	-0.000002	-0.000112	-0.050227	0.071359	0.996185	-0.279562	0.956567	-0.082617	-0.958813	-0.282645	-0.028096
11274		9.845333	-0.712785	-0.275479	0.000636	0.000162	-0.007327	1.000000	0.000008	0.000002	-0.000092	-0.050347	0.071273	0.996185	-0.279476	0.956596	-0.082565	-0.958832	-0.282567	-0.028243
11275		9.817419	-0.690875	-0.298365	0.001207	-0.001961	-0.004760	1.000000	0.000015	-0.000025	-0.000060	-0.050565	0.071224	0.996178	-0.279429	0.956609	-0.082579	-0.958834	-0.282536	-0.028469
11276		9.784289	-0.760331	-0.334200	0.003309	-0.003036	-0.005473	1.000000	0.000041	-0.000038	-0.000068	-0.050705	0.071148	0.996176	-0.279346	0.956636	-0.082543	-0.958851	-0.282463	-0.028632
11277		9.828540	-0.765894	-0.332111	0.008010	0.001010	-0.006644	1.000000	0.000100	0.000013	-0.000083	-0.050818	0.071096	0.996174	-0.279432	0.956612	-0.082527	-0.958820	-0.282557	-0.028747
11278		9.818570	-0.698572	-0.310561	0.009514	0.001025	-0.007245	1.000000	0.000119	0.000013	-0.000091	-0.050936	0.071012	0.996174	-0.279576	0.956574	-0.082485	-0.958772	-0.282708	-0.028870
11279		9.805857	-0.697993	-0.357999	0.006812	0.003190	-0.006419	1.000000	0.000085	0.000040	-0.000080	-0.050954	0.070965	0.996177	-0.279604	0.956569	-0.082445	-0.958762	-0.282736	-0.028899
11280		9.805039	-0.722343	-0.290766	0.011407	0.003553	-0.005942	1.000000	0.000143	0.000044	-0.000074	-0.050968	0.070931	0.996178	-0.279740	0.956531	-0.082421	-0.958722	-0.282872	-0.028910
11281		9.840558	-0.710553	-0.273754	0.005376	0.002678	-0.005394	1.000000	0.000067	0.000033	-0.000067	-0.051002	0.070904	0.996178	-0.279723	0.956538	-0.082404	-0.958725	-0.282857	-0.028952
11282		9.778980	-0.723526	-0.335439	0.005871	0.003389	-0.004499	1.000000	0.000073	0.000042	-0.000056	-0.051063	0.070908	0.996175	-0.279750	0.956528	-0.082426	-0.958714	-0.282889	-0.029007
11283		9.837055	-0.702413	-0.350234	0.009780	0.004526	-0.006188	1.000000	0.000122	0.000057	-0.000077	-0.051025	0.070881	0.996179	-0.279813	0.956513	-0.082391	-0.958698	-0.282948	-0.028973
11284		9.787680	-0.762732	-0.330133	0.002502	0.007140	-0.003989	1.000000	0.000031	0.000089	-0.000050	-0.050975	0.070930	0.996178	-0.279730	0.956534	-0.082421	-0.958725	-0.282862	-0.028918
11285		9.847174	-0.687188	-0.246949	0.010341	0.004742	-0.004868	1.000000	0.000129	0.000059	-0.000061	-0.050968	0.070956	0.996176	-0.279816	0.956507	-0.082447	-0.958700	-0.282949	-0.028896
11286		9.782401	-0.721874	-0.310534	0.000216	0.007363	-0.003301	1.000000	0.000003	0.000092	-0.000041	-0.050925	0.071035	0.996173	-0.279677	0.956542	-0.082506	-0.958743	-0.282808	-0.028845
11287		9.806194	-0.737261	-0.314874	0.005768	0.005190	-0.003491	1.000000	0.000072	0.000065	-0.000044	-0.050972	0.071084	0.996167	-0.279717	0.956525	-0.082568	-0.958728	-0.282854	-0.028872
11288		9.831440	-0.707245	-0.292914	0.006446	0.006752	-0.002573	1.000000	0.000081	0.000084	-0.000032	-0.050956	0.071186	0.996161	-0.279727	0.956514	-0.082662	-0.958726	-0.282865	-0.028827
11289		9.808723	-0.702623	-0.297253	0.004824	0.005391	-0.001572	1.000000	0.000060	0.000067	-0.000020	-0.050989	0.071287	0.996152	-0.279715	0.956509	-0.082767	-0.958728	-0.282859	-0.028832
11290		9.812015	-0.727748	-0.309935	0.003257	0.005870	-0.001397	1.000000	0.000041	0.000073	-0.000017	-0.051040	0.071415	0.996140	-0.279682	0.956507	-0.082904	-0.958735	-0.282834	-0.028847
11291		9.804185	-0.722132	-0.306393	-0.001383	0.006813	-0.000447	1.000000	-0.000017	0.000085	-0.000006	-0.051047	0.071521	0.996132	-0.279532	0.956542	-0.083003	-0.958778	-0.282688	-0.028837
11292		9.810368	-0.750135	-0.299620	0.003624	0.007571	-0.001349	1.000000	0.000045	0.000095	-0.000017	-0.051045	0.071620	0.996125	-0.279514	0.956539	-0.083097	-0.958784	-0.282673	-0.028807
11293		9.837925	-0.733700	-0.279558	0.003003	0.007848	-0.003093	1.000000	0.000038	0.000098	-0.000039	-0.051044	0.071659	0.996122	-0.279515	0.956535	-0.083134	-0.958784	-0.282675	-0.028796
11294		9.803215	-0.732823	-0.272486	0.001070	0.006625	-0.002965	1.000000	0.000013	0.000083	-0.000037	-0.051013	0.071720	0.996119	-0.279391	0.956568	-0.083181	-0.958821	-0.282550	-0.028759
11295		9.793811	-0.758788	-0.333170	-0.002186	0.006238	-0.002215	1.000000	-0.000027	0.000078	-0.000028	-0.050984	0.071785	0.996116	-0.279181	0.956625	-0.083229	-0.958884	-0.282340	-0.028731
11296		9.779395	-0.735028	-0.355718	-0.002320	0.009561	-0.004314	1.000000	-0.000029	0.000120	-0.000054	-0.050896	0.071814	0.996119	-0.279012	0.956674	-0.083226	-0.958938	-0.282165	-0.028654
11297		9.817420	-0.750322	-0.301470	0.004503	0.010197	-0.004939	1.000000	0.000056	0.000127	-0.000062	-0.050758	0.071866	0.996122	-0.278956	0.956690	-0.083236	-0.958962	-0.282099	-0.028512
11298		9.801735	-0.691477	-0.278177	0.002153	0.010914	-0.004678	1.000000	0.000027	0.000136	-0.000058	-0.050651	0.071920	0.996123	-0.278900	0.956705	-0.083255	-0.958984	-0.282035	-0.028400
11299		9.835835	-0.725476	-0.285788	0.003913	0.008952	-0.003578	1.000000	0.000049	0.000112	-0.000045	-0.050601	0.072013	0.996119	-0.278870	0.956707	-0.083330	-0.958995	-0.282005	-0.028328
11300		9.821488	-0.668568	-0.253632	0.004230	0.006479	-0.001456	1.000000	0.000053	0.000081	-0.000018	-0.050618	0.072139	0.996109	-0.278836	0.956706	-0.083455	-0.959004	-0.281976	-0.028311
11301		9.778953	-0.756651	-0.278316	0.002789	0.005969	-0.000434	1.000000	0.000035	0.000075	-0.000005	-0.050598	0.072243	0.996103	-0.278730	0.956729	-0.083546	-0.959036	-0.281871	-0.028273
11302		9.796177	-0.802088	-0.325673	0.007077	0.006473	-0.000820	1.000000	0.000088	0.000081	-0.000010	-0.050611	0.072384	0.996092	-0.278752	0.956710	-0.083685	-0.959029	-0.281898	-0.028243
11303		9.789239	-0.761194	-0.316958	0.007529	0.007891	-0.004883	1.000000	0.000094	0.000099	-0.000061	-0.050559	0.072465	0.996089	-0.278773	0.956698	-0.083749	-0.959025	-0.281917	-0.028168
11304		9.829815	-0.718719	-0.264975	0.010251	0.008873	-0.005095	1.000000	0.000128	0.000111	-0.000064	-0.050436	0.072503	0.996092	-0.278832	0.956681	-0.083752	-0.959014	-0.281967	-0.028035
11305		9.824751	-0.701624	-0.279735	0.007183	0.007002	-0.003074	1.000000	0.000090	0.000088	-0.000038	-0.050367	0.072549	0.996092	-0.278822	0.956681	-0.083777	-0.959021	-0.281952	-0.027957
11306		9.834998	-0.706322	-0.320129	0.004710	0.006375	-0.002414	1.000000	0.000059	0.000080	-0.000030	-0.050351	0.072626	0.996087	-0.278780	0.956688	-0.083845	-0.959034	-0.281910	-0.027924
11307		9.769764	-0.756788	-0.296159	0.007930	0.005738	-0.000480	1.000000	0.000099	0.000072	-0.000006	-0.050402	0.072750	0.996076	-0.278853	0.956655	-0.083980	-0.959010	-0.281991	-0.027931
11308		9.818120	-0.754133	-0.301115	0.012343	0.007586	-0.001264	1.000000	0.000154	0.000095	-0.000016	-0.050324	0.072844	0.996073	-0.278953	0.956619	-0.084052	-0.958985	-0.282087	-0.027821
11309		9.818206	-0.753804	-0.299112	0.011852	0.006872	-0.002159	1.000000	0.000148	0.000086	-0.000027	-0.050305	0.072939	0.996067	-0.279082	0.956574	-0.084142	-0.958949	-0.282217	-0.027764
11310		9.807583	-0.745073	-0.314401	0.007913	0.007253	-0.003584	1.000000	0.000099	0.000091	-0.000045	-0.050325	0.072991	0.996062	-0.279194	0.956536	-0.084201	-0.958915	-0.282331	-0.027759
11311		9.824941	-0.756454	-0.306499	0.008529	0.009309	-0.003090	1.000000	0.000107	0.000116	-0.000039	-0.050235	0.073056	0.996062	-0.279251	0.956516	-0.084239	-0.958903	-0.282383	-0.027650
11312		9.814356	-0.747546	-0.321274	0.003081	0.009675	-0.003921	1.000000	0.000039	0.000121	-0.000049	-0.050111	0.073108	0.996064	-0.279153	0.956544	-0.084251	-0.958938	-0.282276	-0.027525
11313		9.802402	-0.737049	-0.345340	-0.001029	0.012352	-0.004768	1.000000	-0.000013	0.000154	-0.000060	-0.050016	0.073163	0.996065	-0.279070	0.956566	-0.084275	-0.958967	-0.282187	-0.027426
11314		9.821708	-0.752124	-0.267730	0.004175	0.011629	-0.004384	1.000000	0.000052	0.000145	-0.000055	-0.049897	0.073205	0.996068	-0.279069	0.956565	-0.084282	-0.958974	-0.282177	-0.027300
11315		9.840711	-0.693363	-0.249599	0.001145	0.010782	-0.005047	1.000000	0.000014	0.000135	-0.000063	-0.049757	0.073247	0.996072	-0.278943	0.956602	-0.084279	-0.959018	-0.282041	-0.027166
11316		9.795832	-0.707325	-0.292315	0.004504	0.009976	-0.000404	1.000000	0.000056	0.000125	-0.000005	-0.049677	0.073404	0.996064	-0.278893	0.956606	-0.084405	-0.959037	-0.281988	-0.027049
11317		9.814121	-0.731334	-0.296066	0.004614	0.008173	-0.001408	1.000000	0.000058	0.000102	-0.000018	-0.049627	0.073512	0.996059	-0.278846	0.956612	-0.084493	-0.959053	-0.281940	-0.026975
11318		9.829673	-0.779346	-0.243367	0.005215	0.007083	-0.001515	1.000000	0.000065	0.000089	-0.000019	-0.049603	0.073608	0.996053	-0.278814	0.956613	-0.084578	-0.959063	-0.281909	-0.026928
11319		9.824398	-0.715953	-0.242026	0.003277	0.005862	-0.001391	1.000000	0.000041	0.000073	-0.000017	-0.049644	0.073704	0.996044	-0.278774	0.956616	-0.084681	-0.959073	-0.281875	-0.026944
11320		9.800496	-0.743662	-0.310463	0.001768	0.008176	-0.002049	1.000000	0.000022	0.000102	-0.000026	-0.049604	0.073803	0.996038	-0.278672	0.956639	-0.084762	-0.959105	-0.281772	-0.026886
11321		9.807147	-0.746958	-0.320007	0.005865	0.007014	-0.004302	1.000000	0.000073	0.000088	-0.000054	-0.049563	0.073830	0.996038	-0.278659	0.956641	-0.084776	-0.959110	-0.281757	-0.026840
11322		9.803127	-0.768786	-0.270699	0.006482	0.009069	-0.003808	1.000000	0.000081	0.000113	-0.000048	-0.049422	0.073882	0.996042	-0.278600	0.956658	-0.084784	-0.959135	-0.281687	-0.026697
11323		9.806784	-0.735895	-0.244806	0.007329	0.006008	-0.002215	1.000000	0.000092	0.000075	-0.000028	-0.049447	0.073945	0.996036	-0.278655	0.956635	-0.084853	-0.959117	-0.281746	-0.026698
11324		9.797183	-0.739394	-0.272013	0.005098	0.008067	-0.002364	1.000000	0.000064	0.000101	-0.000030	-0.049436	0.074016	0.996031	-0.278677	0.956623	-0.084919	-0.959112	-0.281769	-0.026665
11325		9.816907	-0.750990	-0.304475	0.005699	0.006978	-0.002471	1.000000	0.000071	0.000087	-0.000031	-0.049394	0.074099	0.996027	-0.278631	0.956631	-0.084986	-0.959127	-0.281722	-0.026605
11326		9.810065	-0.770349	-0.274882	0.008951	0.004218	-0.003809	1.000000	0.000112	0.000053	-0.000048	-0.049427	0.074151	0.996021	-0.278674	0.956613	-0.085046	-0.959113	-0.281769	-0.026619
11327		9.788766	-0.766888	-0.270312	0.004176	0.003818	-0.002478	1.000000	0.000052	0.000048	-0.000031	-0.049506	0.074226	0.996012	-0.278637	0.956615	-0.085139	-0.959120	-0.281740	-0.026676
11328		9.794021	-0.768876	-0.290371	0.009554	0.003129	-0.003915	1.000000	0.000119	0.000039	-0.000049	-0.049555	0.074220	0.996010	-0.278711	0.956593	-0.085150	-0.959096	-0.281818	-0.026718
11329		9.811434	-0.753304	-0.359064	0.000914	0.008087	-0.004246	1.000000	0.000011	0.000101	-0.000053	-0.049525	0.074281	0.996007	-0.278605	0.956619	-0.085197	-0.959128	-0.281712	-0.026682
11330		9.828809	-0.777312	-0.313171	0.004047	0.008641	-0.007687	1.000000	0.000051	0.000108	-0.000096	-0.049477	0.074225	0.996013	-0.278626	0.956619	-0.085130	-0.959125	-0.281727	-0.026650
11331		9.834928	-0.712433	-0.213551	0.001874	0.007879	-0.006160	1.000000	0.000023	0.000098	-0.000077	-0.049420	0.074241	0.996015	-0.278517	0.956651	-0.085127	-0.959159	-0.281614	-0.026600
11332		9.822646	-0.712935	-0.259897	0.002683	0.006947	-0.001284	1.000000	0.000034	0.000087	-0.000016	-0.049371	0.074365	0.996008	-0.278365	0.956687	-0.085227	-0.959206	-0.281461	-0.026532
11333		9.805446	-0.757961	-0.302100	0.001209	0.004805	-0.003972	1.000000	0.000015	0.000060	-0.000050	-0.049365	0.074394	0.996006	-0.278202	0.956732	-0.085249	-0.959253	-0.281300	-0.026533
11334		9.813770	-0.809577	-0.319010	0.003163	0.006843	-0.002241	1.000000	0.000040	0.000086	-0.000028	-0.049358	0.074460	0.996002	-0.278140	0.956745	-0.085309	-0.959271	-0.281239	-0.026513
11335		9.825304	-0.781773	-0.295210	0.007870	0.006919	-0.005847	1.000000	0.000098	0.000086	-0.000073	-0.049308	0.074468	0.996004	-0.278158	0.956740	-0.085303	-0.959269	-0.281253	-0.026461
11336		9.827587	-0.746558	-0.278895	0.008170	0.008292	-0.008079	1.000000	0.000102	0.000104	-0.000101	-0.049172	0.074415	0.996014	-0.278150	0.956750	-0.085213	-0.959278	-0.281231	-0.026347
11337		9.790183	-0.742254	-0.291042	0.002973	0.007501	-0.005370	1.000000	0.000037	0.000094	-0.000067	-0.049137	0.074442	0.996014	-0.278078	0.956770	-0.085228	-0.959301	-0.281157	-0.026312
11338		9.809991	-0.766331	-0.285255	0.006367	0.009229	-0.006507	1.000000	0.000080	0.000115	-0.000081	-0.049051	0.074421	0.996020	-0.278107	0.956765	-0.085184	-0.959297	-0.281178	-0.026233
11339		9.814669	-0.744408	-0.270964	0.005387	0.007799	-0.008299	1.000000	0.000067	0.000097	-0.000104	-0.049027	0.074340	0.996027	-0.278171	0.956754	-0.085101	-0.959280	-0.281238	-0.026228
11340		9.806925	-0.737171	-0.267226	0.008114	0.006455	-0.007248	1.000000	0.000101	0.000081	-0.000091	-0.048976	0.074287	0.996034	-0.278207	0.956749	-0.085037	-0.959272	-0.281268	-0.026191
11341		9.817543	-0.741086	-0.307445	0.004489	0.007513	-0.005960	1.000000	0.000056	0.000094	-0.000075	-0.048926	0.074303	0.996035	-0.278153	0.956765	-0.085037	-0.959290	-0.281210	-0.026143
11342		9.781403	-0.751494	-0.272107	0.006729	0.007781	-0.007059	1.000000	0.000084	0.000097	-0.000088	-0.048820	0.074256	0.996043	-0.278128	0.956779	-0.084961	-0.959303	-0.281175	-0.026057
11343		9.801520	-0.764571	-0.245229	0.009211	0.006080	-0.006455	1.000000	0.000115	0.000076	-0.000081	-0.048846	0.074220	0.996045	-0.278265	0.956741	-0.084937	-0.959261	-0.281314	-0.026080
11344		9.809306	-0.708508	-0.267000	0.010374	0.006034	-0.003386	1.000000	0.000130	0.000075	-0.000042	-0.048829	0.074258	0.996043	-0.278345	0.956715	-0.084971	-0.959239	-0.281393	-0.026046
11345		9.807371	-0.741475	-0.279693	0.006377	0.005393	-0.002145	1.000000	0.000080	0.000067	-0.000027	-0.048853	0.074327	0.996037	-0.278342	0.956710	-0.085045	-0.959239	-0.281394	-0.026050
11346		9.839773	-0.740823	-0.242964	0.009710	0.005288	-0.002451	1.000000	0.000121	0.000066	-0.000031	-0.048853	0.074383	0.996032	-0.278394	0.956690	-0.085100	-0.959224	-0.281446	-0.026030
11347		9.805534	-0.773838	-0.290979	0.005769	0.005661	-0.003892	1.000000	0.000072	0.000071	-0.000049	-0.048819	0.074420	0.996031	-0.278322	0.956708	-0.085124	-0.959246	-0.281373	-0.025992
11348		9.807403	-0.750077	-0.296402	0.009228	0.006896	-0.004601	1.000000	0.000115	0.000086	-0.000058	-0.048740	0.074485	0.996030	-0.278296	0.956712	-0.085163	-0.959258	-0.281343	-0.025902
11349		9.798105	-0.755711	-0.264332	0.007775	0.006389	-0.003586	1.000000	0.000097	0.000080	-0.000045	-0.048693	0.074522	0.996030	-0.278282	0.956715	-0.085184	-0.959264	-0.281325	-0.025847
11350		9.809388	-0.725518	-0.299869	0.004569	0.007835	-0.003684	1.000000	0.000057	0.000098	-0.000046	-0.048662	0.074579	0.996027	-0.278249	0.956720	-0.085230	-0.959275	-0.281291	-0.025805
11351		9.815982	-0.741804	-0.271379	0.008987	0.006536	-0.005048	1.000000	0.000112	0.000082	-0.000063	-0.048600	0.074604	0.996028	-0.278246	0.956720	-0.085236	-0.959280	-0.281283	-0.025738
11352		9.833492	-0.739688	-0.301536	0.005848	0.008311	-0.002870	1.000000	0.000073	0.000104	-0.000036	-0.048542	0.074698	0.996024	-0.278202	0.956727	-0.085309	-0.959295	-0.281237	-0.025660
11353		9.799432	-0.775206	-0.289686	0.007238	0.006984	-0.003054	1.000000	0.000090	0.000087	-0.000038	-0.048596	0.074763	0.996017	-0.278310	0.956688	-0.085389	-0.959261	-0.281351	-0.025684
11354		9.797190	-0.763367	-0.226257	0.004573	0.007832	-0.003684	1.000000	0.000057	0.000098	-0.000046	-0.048526	0.074802	0.996017	-0.278236	0.956708	-0.085406	-0.959286	-0.281272	-0.025613
11355		9.798349	-0.772168	-0.295386	0.002510	0.007593	-0.004417	1.000000	0.000031	0.000095	-0.000055	-0.048474	0.074810	0.996019	-0.278145	0.956736	-0.085396	-0.959315	-0.281177	-0.025568
11356		9.813690	-0.745567	-0.302149	0.005601	0.007130	-0.005167	1.000000	0.000070	0.000089	-0.000065	-0.048423	0.074840	0.996019	-0.278089	0.956751	-0.085409	-0.959334	-0.281118	-0.025517
11357		9.830403	-0.722632	-0.239988	0.005119	0.007235	-0.004212	1.000000	0.000064	0.000090	-0.000053	-0.048368	0.074873	0.996019	-0.278024	0.956768	-0.085423	-0.959356	-0.281049	-0.025460
11358		9.831789	-0.720898	-0.288115	0.004873	0.005376	-0.001552	1.000000	0.000061	0.000067	-0.000019	-0.048415	0.074938	0.996012	-0.278015	0.956764	-0.085499	-0.959356	-0.281046	-0.025487
11359		9.796568	-0.744646	-0.265373	0.007110	0.003320	-0.001391	1.000000	0.000089	0.000041	-0.000017	-0.048503	0.075004	0.996003	-0.278039	0.956749	-0.085588	-0.959344	-0.281079	-0.025551
11360		9.778367	-0.791305	-0.257989	0.006694	0.005256	-0.001266	1.000000	0.000084	0.000066	-0.000016	-0.048504	0.075125	0.995994	-0.277964	0.956761	-0.085703	-0.959366	-0.281008	-0.025525
11361		9.820339	-0.770989	-0.289550	0.008999	0.005031	-0.001935	1.000000	0.000112	0.000063	-0.000024	-0.048553	0.075177	0.995987	-0.278052	0.956729	-0.085769	-0.959338	-0.281100	-0.025549
11362		9.819300	-0.758368	-0.276303	0.010702	0.005894	-0.002500	1.000000	0.000134	0.000074	-0.000031	-0.048550	0.075259	0.995981	-0.278111	0.956705	-0.085848	-0.959321	-0.281162	-0.025518
11363		9.819214	-0.768421	-0.295787	0.005066	0.007722	-0.004639	1.000000	0.000063	0.000097	-0.000058	-0.048561	0.075278	0.995979	-0.278156	0.956690	-0.085871	-0.959308	-0.281207	-0.025518
11364		9.811593	-0.751101	-0.270828	0.008278	0.006276	-0.004534	1.000000	0.000103	0.000078	-0.000057	-0.048547	0.075300	0.995978	-0.278187	0.956679	-0.085889	-0.959299	-0.281238	-0.025496
11365		9.805091	-0.745869	-0.257738	0.004638	0.006513	-0.005108	1.000000	0.000058	0.000081	-0.000064	-0.048521	0.075290	0.995980	-0.278147	0.956692	-0.085871	-0.959312	-0.281196	-0.025478
11366		9.803297	-0.778570	-0.270041	0.004889	0.007694	-0.002810	1.000000	0.000061	0.000096	-0.000035	-0.048476	0.075344	0.995979	-0.278100	0.956703	-0.085909	-0.959328	-0.281146	-0.025424
11367		9.825601	-0.734705	-0.245530	0.007195	0.007469	-0.003476	1.000000	0.000090	0.000093	-0.000043	-0.048452	0.075387	0.995976	-0.278129	0.956691	-0.085944	-0.959321	-0.281174	-0.025386
11368		9.797276	-0.749098	-0.271581	0.005008	0.006712	-0.001956	1.000000	0.000063	0.000084	-0.000024	-0.048436	0.075464	0.995971	-0.278075	0.956701	-0.086012	-0.959338	-0.281120	-0.025354
11369		9.817306	-0.760829	-0.303840	0.006654	0.008065	-0.002948	1.000000	0.000083	0.000101	-0.000037	-0.048385	0.075545	0.995968	-0.278048	0.956703	-0.086075	-0.959348	-0.281091	-0.025285
11370		9.826442	-0.780050	-0.255880	0.008779	0.007814	-0.001785	1.000000	0.000110	0.000098	-0.000022	-0.048351	0.075631	0.995963	-0.278094	0.956683	-0.086149	-0.959336	-0.281137	-0.025224
11371		9.817832	-0.738079	-0.257103	0.007748	0.007693	-0.002153	1.000000	0.000097	0.000096	-0.000027	-0.048361	0.075719	0.995956	-0.278160	0.956656	-0.086238	-0.959316	-0.281206	-0.025202
11372		9.806916	-0.753781	-0.255746	0.007808	0.007202	-0.001726	1.000000	0.000098	0.000090	-0.000022	-0.048335	0.075803	0.995951	-0.278174	0.956645	-0.086311	-0.959314	-0.281219	-0.025153
11373		9.817262	-0.783115	-0.279174	0.005860	0.005981	-0.001609	1.000000	0.000073	0.000075	-0.000020	-0.048348	0.075870	0.995945	-0.278162	0.956642	-0.086379	-0.959317	-0.281210	-0.025148
11374		9.810965	-0.765362	-0.304215	0.003678	0.006721	-0.003199	1.000000	0.000046	0.000084	-0.000040	-0.048375	0.075915	0.995940	-0.278142	0.956643	-0.086430	-0.959321	-0.281194	-0.025162
11375		9.800979	-0.805919	-0.276535	0.007148	0.007954	-0.003901	1.000000	0.000089	0.000099	-0.000049	-0.048289	0.075976	0.995940	-0.278081	0.956658	-0.086463	-0.959343	-0.281127	-0.025069
11376		9.813077	-0.721289	-0.205768	0.008656	0.005648	-0.003227	1.000000	0.000108	0.000071	-0.000040	-0.048258	0.076027	0.995937	-0.278057	0.956662	-0.086502	-0.959352	-0.281102	-0.025027
11377		9.808553	-0.762701	-0.258789	0.007138	0.005634	-0.002641	1.000000	0.000089	0.000070	-0.000033	-0.048314	0.076077	0.995931	-0.278121	0.956637	-0.086568	-0.959330	-0.281172	-0.025061
11378		9.830351	-0.751737	-0.298691	0.007985	0.004906	-0.002293	1.000000	0.000100	0.000061	-0.000029	-0.048375	0.076142	0.995923	-0.278170	0.956616	-0.086648	-0.959313	-0.281227	-0.025096
11379		9.806108	-0.759153	-0.275150	0.006409	0.005382	-0.002135	1.000000	0.000080	0.000067	-0.000027	-0.048382	0.076222	0.995916	-0.278114	0.956625	-0.086725	-0.959329	-0.281175	-0.025085
11380		9.789278	-0.806888	-0.257651	0.010971	0.006245	-0.002040	1.000000	0.000137	0.000078	-0.000025	-0.048351	0.076293	0.995912	-0.278165	0.956605	-0.086786	-0.959316	-0.281224	-0.025031
11381		9.808327	-0.795466	-0.257341	0.009020	0.004199	-0.003773	1.000000	0.000113	0.000052	-0.000047	-0.048383	0.076314	0.995909	-0.278197	0.956593	-0.086816	-0.959305	-0.281259	-0.025053
11382		9.806421	-0.756710	-0.270672	0.007942	0.006060	-0.007678	1.000000	0.000099	0.000076	-0.000096	-0.048325	0.076247	0.995917	-0.278193	0.956601	-0.086736	-0.959309	-0.281249	-0.025016
11383		9.806695	-0.744269	-0.247766	0.007271	0.006144	-0.004896	1.000000	0.000091	0.000077	-0.000061	-0.048335	0.076239	0.995917	-0.278245	0.956586	-0.086732	-0.959293	-0.281301	-0.025023
11384		9.832437	-0.736678	-0.258662	0.007087	0.006121	-0.003067	1.000000	0.000089	0.000077	-0.000038	-0.048365	0.076265	0.995914	-0.278311	0.956564	-0.086767	-0.959272	-0.281371	-0.025039
11385		9.806785	-0.753655	-0.265965	0.004405	0.004649	-0.002445	1.000000	0.000055	0.000058	-0.000031	-0.048388	0.076321	0.995908	-0.278220	0.956585	-0.086825	-0.959298	-0.281283	-0.025053
11386		9.782331	-0.782791	-0.284935	0.005267	0.006238	-0.003357	1.000000	0.000066	0.000078	-0.000042	-0.048373	0.076365	0.995906	-0.278160	0.956599	-0.086862	-0.959316	-0.281223	-0.025032
11387		9.811437	-0.813886	-0.271297	0.010319	0.006993	-0.004213	1.000000	0.000129	0.000087	-0.000053	-0.048321	0.076396	0.995906	-0.278203	0.956585	-0.086878	-0.959306	-0.281262	-0.024969
11388		9.807532	-0.727258	-0.277771	0.006245	0.006847	-0.003415	1.000000	0.000078	0.000086	-0.000043	-0.048283	0.076418	0.995906	-0.278188	0.956589	-0.086887	-0.959312	-0.281244	-0.024928
11389		9.825667	-0.774441	-0.264523	0.008687	0.007958	-0.004483	1.000000	0.000109	0.000099	-0.000056	-0.048247	0.076424	0.995907	-0.278275	0.956564	-0.086886	-0.959289	-0.281328	-0.024884
11390		9.808150	-0.785300	-0.251711	0.001453	0.007938	-0.005222	1.000000	0.000018	0.000099	-0.000065	-0.048206	0.076412	0.995910	-0.278191	0.956590	-0.086861	-0.959315	-0.281240	-0.024857
11391		9.805666	-0.792483	-0.290094	0.003953	0.008560	-0.005863	1.000000	0.000049	0.000107	-0.000073	-0.048139	0.076399	0.995915	-0.278146	0.956606	-0.086828	-0.959332	-0.281190	-0.024800
11392		9.816961	-0.752837	-0.244871	0.006022	0.007975	-0.006971	1.000000	0.000075	0.000100	-0.000087	-0.048066	0.076368	0.995920	-0.278122	0.956618	-0.086777	-0.959342	-0.281158	-0.024742
11393		9.826814	-0.733959	-0.251755	0.005779	0.008442	-0.005570	1.000000	0.000072	0.000106	-0.000070	-0.047927	0.076357	0.995928	-0.278031	0.956649	-0.086725	-0.959376	-0.281055	-0.024620
11394		9.812951	-0.781408	-0.273873	0.001758	0.007806	-0.004347	1.000000	0.000022	0.000098	-0.000054	-0.047922	0.076369	0.995927	-0.277980	0.956663	-0.086734	-0.959391	-0.281004	-0.024616
11395		9.819940	-0.751672	-0.219617	-0.003052	0.007408	-0.003047	1.000000	-0.000038	0.000093	-0.000038	-0.047860	0.076441	0.995925	-0.277678	0.956747	-0.086778	-0.959481	-0.280699	-0.024564
11396		9.816965	-0.794385	-0.262552	-0.010401	0.009191	-0.002798	1.000000	-0.000130	0.000115	-0.000035	-0.047797	0.076497	0.995924	-0.277293	0.956856	-0.086804	-0.959596	-0.280311	-0.024523
11397		9.805320	-0.773609	-0.266447	0.006253	0.006846	-0.003409	1.000000	0.000078	0.000086	-0.000043	-0.047828	0.076523	0.995920	-0.277360	0.956833	-0.086839	-0.959575	-0.280382	-0.024539
11398		9.817680	-0.747089	-0.233386	0.009037	0.005024	-0.001911	1.000000	0.000113	0.000063	-0.000024	-0.047845	0.076601	0.995913	-0.277368	0.956824	-0.086920	-0.959572	-0.280393	-0.024532
11399		9.824440	-0.751050	-0.243286	0.013229	0.005020	-0.000001	1.000000	0.000165	0.000063	-0.000000	-0.047920	0.076715	0.995901	-0.277542	0.956761	-0.087055	-0.959518	-0.280576	-0.024557
11400		9.812636	-0.753198	-0.290234	0.010731	0.004397	0.000638	1.000000	0.000134	0.000055	0.000008	-0.047975	0.076840	0.995889	-0.277606	0.956730	-0.087191	-0.959496	-0.280648	-0.024568
11401		9.812205	-0.788199	-0.293170	0.012143	0.005386	-0.000798	1.000000	0.000152	0.000067	-0.000010	-0.047981	0.076913	0.995883	-0.277722	0.956690	-0.087266	-0.959462	-0.280766	-0.024543
11402		9.808107	-0.786064	-0.260873	0.009851	0.007096	-0.003250	1.000000	0.000123	0.000089	-0.000041	-0.047961	0.076959	0.995880	-0.277796	0.956664	-0.087307	-0.959442	-0.280839	-0.024503
11403		9.806963	-0.773243	-0.247345	0.006805	0.007072	-0.002087	1.000000	0.000085	0.000088	-0.000026	-0.047935	0.077027	0.995876	-0.277786	0.956662	-0.087365	-0.959446	-0.280828	-0.024460
11404		9.804103	-0.783214	-0.226499	0.006750	0.007559	-0.002514	1.000000	0.000084	0.000094	-0.000031	-0.047894	0.077122	0.995871	-0.277727	0.956672	-0.087443	-0.959465	-0.280768	-0.024400
11405		9.819341	-0.768194	-0.254811	0.006979	0.004777	-0.002651	1.000000	0.000087	0.000060	-0.000033	-0.047937	0.077148	0.995867	-0.277761	0.956659	-0.087481	-0.959453	-0.280807	-0.024430
11406		9.827398	-0.784027	-0.276278	0.006621	0.006222	-0.002106	1.000000	0.000083	0.000078	-0.000026	-0.047965	0.077211	0.995860	-0.277786	0.956645	-0.087550	-0.959445	-0.280835	-0.024438
11407		9.782884	-0.800875	-0.261236	0.004122	0.004771	-0.003316	1.000000	0.000052	0.000060	-0.000041	-0.048025	0.077225	0.995856	-0.277773	0.956646	-0.087580	-0.959445	-0.280828	-0.024492
11408		9.792246	-0.817495	-0.273099	0.006514	0.006369	-0.004809	1.000000	0.000081	0.000080	-0.000060	-0.048008	0.077253	0.995855	-0.277726	0.956658	-0.087601	-0.959460	-0.280780	-0.024472
11409		9.802969	-0.729023	-0.271749	0.003844	0.007211	-0.005455	1.000000	0.000048	0.000090	-0.000068	-0.047983	0.077243	0.995857	-0.277680	0.956673	-0.087583	-0.959475	-0.280732	-0.024455
11410		9.813609	-0.746654	-0.273782	0.003222	0.005985	-0.004095	1.000000	0.000040	0.000075	-0.000051	-0.047960	0.077272	0.995856	-0.277549	0.956709	-0.087601	-0.959514	-0.280600	-0.024437
11411		9.820432	-0.727840	-0.241230	0.012650	0.004445	-0.003589	1.000000	0.000158	0.000056	-0.000045	-0.048001	0.077289	0.995853	-0.277691	0.956665	-0.087633	-0.959470	-0.280746	-0.024459
11412		9.833061	-0.667061	-0.204509	0.019357	0.001613	0.004341	1.000000	0.000242	0.000020	0.000054	-0.048162	0.077469	0.995831	-0.277992	0.956557	-0.087858	-0.959375	-0.281064	-0.024534
11413		9.802217	-0.765355	-0.212072	0.014464	-0.000607	0.006470	1.000000	0.000181	-0.000008	0.000081	-0.048390	0.077675	0.995804	-0.278184	0.956477	-0.088126	-0.959308	-0.281281	-0.024676
11414		9.807128	-0.827272	-0.279628	0.017439	-0.001579	0.007995	1.000000	0.000218	-0.000020	0.000100	-0.048669	0.077931	0.995770	-0.278433	0.956374	-0.088456	-0.959222	-0.281561	-0.024848
11415		9.781786	-0.833904	-0.326204	0.014490	0.001701	0.005206	1.000000	0.000181	0.000021	0.000065	-0.048871	0.078146	0.995743	-0.278632	0.956291	-0.088725	-0.959154	-0.281782	-0.024961
11416		9.809441	-0.843523	-0.280241	0.018359	0.003793	0.002706	1.000000	0.000229	0.000047	0.000034	-0.048963	0.078314	0.995726	-0.278881	0.956200	-0.088919	-0.959077	-0.282043	-0.024978
11417		9.807714	-0.855628	-0.250299	0.012526	0.004759	0.000513	1.000000	0.000157	0.000059	0.000006	-0.049032	0.078450	0.995712	-0.278988	0.956155	-0.089072	-0.959042	-0.282159	-0.024995
11418		9.806214	-0.816446	-0.323073	0.009934	0.006593	-0.002821	1.000000	0.000124	0.000082	-0.000035	-0.049040	0.078502	0.995707	-0.279075	0.956124	-0.089126	-0.959016	-0.282247	-0.024980
11419		9.803354	-0.815026	-0.280633	0.006980	0.010705	-0.003767	1.000000	0.000087	0.000134	-0.000047	-0.048906	0.078553	0.995710	-0.279067	0.956126	-0.089137	-0.959025	-0.282229	-0.024839
11420		9.814466	-0.786495	-0.255976	0.007799	0.011943	-0.006955	1.000000	0.000097	0.000149	-0.000087	-0.048748	0.078545	0.995718	-0.279094	0.956123	-0.089086	-0.959026	-0.282242	-0.024687
11421		9.809155	-0.781959	-0.232264	0.001806	0.010096	-0.005629	1.000000	0.000023	0.000126	-0.000070	-0.048603	0.078572	0.995723	-0.278904	0.956180	-0.089065	-0.959088	-0.282040	-0.024559
11422		9.801439	-0.808691	-0.291557	-0.001060	0.010923	-0.004452	1.000000	-0.000013	0.000137	-0.000056	-0.048493	0.078615	0.995725	-0.278726	0.956231	-0.089071	-0.959145	-0.281854	-0.024459
11423		9.829383	-0.837917	-0.286172	-0.000184	0.011673	-0.007211	1.000000	-0.000002	0.000146	-0.000090	-0.048336	0.078600	0.995734	-0.278558	0.956286	-0.089008	-0.959202	-0.281672	-0.024329
11424		9.802529	-0.808245	-0.216786	-0.000048	0.013007	-0.007620	1.000000	-0.000001	0.000163	-0.000095	-0.048100	0.078593	0.995746	-0.278329	0.956360	-0.088929	-0.959281	-0.281422	-0.024127
11425		9.812988	-0.776287	-0.261061	-0.000423	0.011311	-0.007658	1.000000	-0.000005	0.000141	-0.000096	-0.047896	0.078574	0.995757	-0.278078	0.956441	-0.088848	-0.959364	-0.281153	-0.023960
11426		9.825058	-0.805337	-0.273325	0.002034	0.012417	-0.008719	1.000000	0.000025	0.000155	-0.000109	-0.047678	0.078527	0.995771	-0.277928	0.956494	-0.088737	-0.959418	-0.280984	-0.023778
11427		9.810440	-0.782798	-0.236289	0.000672	0.010944	-0.006855	1.000000	0.000008	0.000137	-0.000086	-0.047531	0.078525	0.995778	-0.277751	0.956550	-0.088689	-0.959476	-0.280794	-0.023655
11428		9.795861	-0.771622	-0.220491	0.005253	0.011808	-0.006740	1.000000	0.000066	0.000148	-0.000084	-0.047377	0.078514	0.995787	-0.277730	0.956562	-0.088635	-0.959490	-0.280759	-0.023514
11429		9.811480	-0.778142	-0.290137	0.000345	0.009593	-0.004619	1.000000	0.000004	0.000120	-0.000058	-0.047293	0.078538	0.995789	-0.277590	0.956603	-0.088631	-0.959535	-0.280612	-0.023439
11430		9.807771	-0.846272	-0.255817	0.004135	0.010696	-0.004428	1.000000	0.000052	0.000134	-0.000055	-0.047186	0.078595	0.995789	-0.277503	0.956625	-0.088654	-0.959565	-0.280518	-0.023329
11431		9.805771	-0.796637	-0.246985	0.006160	0.010594	-0.005955	1.000000	0.000077	0.000132	-0.000074	-0.047025	0.078594	0.995797	-0.277457	0.956643	-0.088607	-0.959587	-0.280457	-0.023180
11432		9.812631	-0.788232	-0.234386	0.005127	0.010470	-0.006328	1.000000	0.000064	0.000131	-0.000079	-0.046916	0.078596	0.995802	-0.277418	0.956657	-0.088577	-0.959603	-0.280409	-0.023078
11433		9.856231	-0.768077	-0.254981	0.006578	0.008660	-0.006066	1.000000	0.000082	0.000108	-0.000076	-0.046846	0.078585	0.995806	-0.277421	0.956659	-0.088546	-0.959606	-0.280405	-0.023014
11434		9.801318	-0.776707	-0.256869	-0.000386	0.009340	-0.004117	1.000000	-0.000005	0.000117	-0.000051	-0.046785	0.078630	0.995805	-0.277255	0.956705	-0.088568	-0.959657	-0.280236	-0.022959
11435		9.811555	-0.818140	-0.241137	0.007616	0.008782	-0.005690	1.000000	0.000095	0.000110	-0.000071	-0.046711	0.078629	0.995809	-0.277276	0.956701	-0.088547	-0.959654	-0.280250	-0.022887
11436		9.791624	-0.826262	-0.247167	0.002218	0.010946	-0.007431	1.000000	0.000028	0.000137	-0.000093	-0.046601	0.078603	0.995816	-0.277195	0.956730	-0.088490	-0.959683	-0.280159	-0.022796
11437		9.823963	-0.762192	-0.290694	0.007566	0.009267	-0.006117	1.000000	0.000095	0.000116	-0.000076	-0.046499	0.078599	0.995821	-0.277192	0.956734	-0.088457	-0.959689	-0.280147	-0.022700
11438		9.825930	-0.775579	-0.230669	0.008200	0.010488	-0.007475	1.000000	0.000102	0.000131	-0.000093	-0.046358	0.078589	0.995829	-0.277165	0.956746	-0.088408	-0.959703	-0.280107	-0.022571
11439		9.838019	-0.748172	-0.196840	0.005154	0.008506	-0.002784	1.000000	0.000064	0.000106	-0.000035	-0.046303	0.078658	0.995826	-0.277109	0.956758	-0.088457	-0.959722	-0.280048	-0.022504
11440		9.816086	-0.788619	-0.286157	0.005612	0.006922	-0.000621	1.000000	0.000070	0.000087	-0.000008	-0.046333	0.078773	0.995815	-0.277079	0.956756	-0.088575	-0.959729	-0.280024	-0.022503
11441		9.801748	-0.838498	-0.248775	0.011389	0.007576	-0.004224	1.000000	0.000142	0.000095	-0.000053	-0.046265	0.078817	0.995815	-0.277108	0.956745	-0.088599	-0.959724	-0.280047	-0.022423
11442		9.808852	-0.795488	-0.232355	0.006477	0.010460	-0.005074	1.000000	0.000081	0.000131	-0.000063	-0.046115	0.078849	0.995819	-0.277039	0.956766	-0.088586	-0.959751	-0.279966	-0.022277
11443		9.809187	-0.805610	-0.250746	0.005433	0.011170	-0.003604	1.000000	0.000068	0.000140	-0.000045	-0.046028	0.078902	0.995819	-0.277062	0.956757	-0.088613	-0.959749	-0.279982	-0.022177
11444		9.828040	-0.782775	-0.227890	0.007073	0.010208	-0.003319	1.000000	0.000088	0.000128	-0.000041	-0.045956	0.078976	0.995817	-0.277065	0.956752	-0.088664	-0.959751	-0.279981	-0.022087
11445		9.802122	-0.823668	-0.217174	0.003525	0.009464	-0.003068	1.000000	0.000044	0.000118	-0.000038	-0.045869	0.079044	0.995815	-0.276960	0.956778	-0.088703	-0.959786	-0.279870	-0.021995
11446		9.820249	-0.775952	-0.221463	0.003336	0.008617	-0.003086	1.000000	0.000042	0.000108	-0.000039	-0.045845	0.079110	0.995811	-0.276884	0.956795	-0.088758	-0.959809	-0.279793	-0.021960
11447		9.826445	-0.800515	-0.282156	0.000251	0.011385	-0.003637	1.000000	0.000003	0.000142	-0.000045	-0.045717	0.079163	0.995813	-0.276749	0.956833	-0.088770	-0.959854	-0.279648	-0.021836
11448		9.820507	-0.774139	-0.216286	0.006541	0.009970	-0.004641	1.000000	0.000082	0.000125	-0.000058	-0.045609	0.079196	0.995815	-0.276722	0.956841	-0.088770	-0.959867	-0.279613	-0.021726
11449		9.818934	-0.796116	-0.206367	0.003327	0.009450	-0.001240	1.000000	0.000042	0.000118	-0.000016	-0.045558	0.079302	0.995809	-0.276647	0.956855	-0.088856	-0.959891	-0.279535	-0.021654
11450		9.799438	-0.781663	-0.229721	0.002051	0.008965	-0.002064	1.000000	0.000026	0.000112	-0.000026	-0.045472	0.079393	0.995806	-0.276481	0.956897	-0.088916	-0.959943	-0.279364	-0.021561
11451		9.807297	-0.821286	-0.233080	0.005066	0.009472	-0.003638	1.000000	0.000063	0.000118	-0.000045	-0.045329	0.079455	0.995807	-0.276340	0.956936	-0.088932	-0.959990	-0.279213	-0.021420
11452		9.819500	-0.805079	-0.220446	0.003443	0.009596	-0.005768	1.000000	0.000043	0.000120	-0.000072	-0.045184	0.079452	0.995814	-0.276217	0.956976	-0.088886	-0.960032	-0.279077	-0.021294
11453		9.823030	-0.804260	-0.258241	0.003458	0.008760	-0.007612	1.000000	0.000043	0.000110	-0.000095	-0.045061	0.079408	0.995823	-0.276088	0.957021	-0.088807	-0.960076	-0.278936	-0.021201
11454		9.806676	-0.815597	-0.235571	0.007254	0.009865	-0.007411	1.000000	0.000091	0.000123	-0.000093	-0.044926	0.079362	0.995833	-0.276100	0.957025	-0.088725	-0.960078	-0.278936	-0.021083
11455		9.825522	-0.791697	-0.213109	0.005840	0.008047	-0.007825	1.000000	0.000073	0.000101	-0.000098	-0.044832	0.079300	0.995842	-0.276064	0.957043	-0.088639	-0.960093	-0.278890	-0.021014
11456		9.827389	-0.767162	-0.218492	0.002480	0.008148	-0.007560	1.000000	0.000031	0.000102	-0.000094	-0.044746	0.079262	0.995849	-0.275911	0.957093	-0.088575	-0.960141	-0.278730	-0.020956
11457		9.805830	-0.797999	-0.217655	-0.000293	0.008002	-0.005540	1.000000	-0.000004	0.000100	-0.000069	-0.044665	0.079279	0.995851	-0.275659	0.957167	-0.088563	-0.960217	-0.278471	-0.020898
11458		9.831488	-0.778510	-0.206840	0.002293	0.007301	-0.007578	1.000000	0.000029	0.000091	-0.000095	-0.044619	0.079201	0.995860	-0.275607	0.957190	-0.088474	-0.960234	-0.278413	-0.020880
11459		9.817312	-0.789798	-0.234501	0.000554	0.007279	-0.005182	1.000000	0.000007	0.000091	-0.000065	-0.044596	0.079197	0.995861	-0.275474	0.957230	-0.088461	-0.960274	-0.278279	-0.020871
11460		9.834332	-0.786359	-0.274356	0.003794	0.005009	-0.006880	1.000000	0.000047	0.000063	-0.000086	-0.044641	0.079137	0.995864	-0.275444	0.957242	-0.088415	-0.960280	-0.278252	-0.020934
11461		9.814246	-0.785601	-0.191384	0.006762	0.006001	-0.008878	1.000000	0.000085	0.000075	-0.000111	-0.044581	0.079037	0.995874	-0.275418	0.957261	-0.088302	-0.960290	-0.278218	-0.020907
11462		9.805881	-0.802273	-0.171265	0.004090	0.004884	-0.006002	1.000000	0.000051	0.000061	-0.000075	-0.044557	0.079007	0.995878	-0.275292	0.957300	-0.088263	-0.960328	-0.278090	-0.020904
11463		9.811396	-0.790182	-0.238784	0.003107	0.004274	-0.005950	1.000000	0.000039	0.000053	-0.000074	-0.044564	0.078970	0.995880	-0.275166	0.957340	-0.088227	-0.960363	-0.277964	-0.020933
11464		9.819584	-0.793971	-0.239302	0.007023	0.003575	-0.006732	1.000000	0.000088	0.000045	-0.000084	-0.044572	0.078900	0.995886	-0.275153	0.957350	-0.088162	-0.960367	-0.277950	-0.020962
11465		9.825683	-0.763043	-0.186102	0.011474	0.003114	-0.006187	1.000000	0.000143	0.000039	-0.000077	-0.044635	0.078833	0.995888	-0.275303	0.957311	-0.088118	-0.960321	-0.278104	-0.021027
11466		9.835787	-0.755783	-0.215446	0.008007	0.002235	-0.003241	1.000000	0.000100	0.000028	-0.000041	-0.044714	0.078840	0.995884	-0.275314	0.957305	-0.088148	-0.960314	-0.278123	-0.021099
11467		9.821056	-0.791824	-0.227374	0.005349	0.000282	-0.002209	1.000000	0.000067	0.000004	-0.000028	-0.044859	0.078874	0.995875	-0.275229	0.957322	-0.088218	-0.960331	-0.278051	-0.021236
11468		9.806337	-0.827812	-0.239252	0.008751	0.002482	-0.003740	1.000000	0.000109	0.000031	-0.000047	-0.044929	0.078872	0.995872	-0.275258	0.957313	-0.088236	-0.960320	-0.278086	-0.021301
11469		9.818420	-0.811800	-0.228214	0.011323	0.002618	-0.003931	1.000000	0.000142	0.000033	-0.000049	-0.045036	0.078868	0.995867	-0.275382	0.957274	-0.088265	-0.960279	-0.278219	-0.021393
11470		9.816704	-0.784881	-0.263661	0.010480	0.003339	-0.004290	1.000000	0.000131	0.000042	-0.000054	-0.045101	0.078871	0.995864	-0.275435	0.957257	-0.088287	-0.960261	-0.278278	-0.021449
