// Start Time: Unknown
// Update Rate: 40.0Hz
// Filter Profile: human (46.1)
// Firmware Version: 4.3.4
PacketCounter	SampleTimeFine	Acc_X	Acc_Y	Acc_Z	Gyr_X	Gyr_Y	Gyr_Z	OriInc_q0	OriInc_q1	OriInc_q2	OriInc_q3	Mat[1][1]	Mat[2][1]	Mat[3][1]	Mat[1][2]	Mat[2][2]	Mat[3][2]	Mat[1][3]	Mat[2][3]	Mat[3][3]
10839		9.915989	0.711536	6.840168	0.242411	0.038390	-0.218626	0.999992	0.003030	0.000480	-0.002733	-0.202988	0.531854	0.822148	-0.901573	-0.429116	0.055000	0.382049	-0.730063	0.566610
10840		10.046226	0.889611	6.812439	0.145668	0.122489	-0.232013	0.999993	0.001821	0.001531	-0.002900	-0.198933	0.536572	0.820071	-0.901343	-0.428670	0.061831	0.384716	-0.726865	0.568912
10841		10.289493	0.780481	6.822497	-0.026674	0.153616	-0.209562	0.999995	-0.000333	0.001920	-0.002620	-0.195681	0.541579	0.817558	-0.902629	-0.425369	0.065736	0.383365	-0.725089	0.572082
10842		10.336888	0.372099	6.295362	-0.163217	0.177503	-0.115583	0.999994	-0.002040	0.002219	-0.001445	-0.194748	0.546014	0.814826	-0.904750	-0.420835	0.065761	0.378814	-0.724408	0.575963
10843		10.422152	0.033725	6.271770	-0.261078	0.288706	0.020436	0.999988	-0.003263	0.003609	0.000255	-0.197920	0.550872	0.810782	-0.907096	-0.416409	0.061491	0.371491	-0.723287	0.582109
10844		10.516408	-0.112876	6.644026	-0.558877	0.371450	0.159769	0.999963	-0.006986	0.004643	0.001997	-0.204983	0.555578	0.805801	-0.911379	-0.408541	0.049837	0.356891	-0.724174	0.590085
10845		9.958856	-0.187078	6.564075	-0.632770	0.434506	0.310711	0.999946	-0.007909	0.005431	0.003884	-0.215964	0.559827	0.799971	-0.915277	-0.401404	0.033814	0.340041	-0.724892	0.599085
10846		9.874635	-0.447886	6.662229	-0.468463	0.448152	0.391942	0.999955	-0.005856	0.005602	0.004899	-0.228868	0.563275	0.793940	-0.917012	-0.398438	0.018332	0.326662	-0.723857	0.607720
10847		9.480156	-0.284500	6.931318	-0.414980	0.397822	0.446198	0.999959	-0.005187	0.004973	0.005577	-0.242581	0.565077	0.788570	-0.917723	-0.397215	0.002327	0.314547	-0.723124	0.614941
10848		9.145411	-0.370482	6.981369	-0.334002	0.208499	0.506729	0.999968	-0.004175	0.002606	0.006334	-0.256060	0.562920	0.785846	-0.917175	-0.398255	-0.013573	0.305326	-0.724234	0.618273
10849		9.084575	-0.604411	6.702876	-0.108241	0.172156	0.510334	0.999976	-0.001353	0.002152	0.006379	-0.269352	0.560033	0.783462	-0.914668	-0.403360	-0.026131	0.301383	-0.723647	0.620890
10850		9.280816	-0.371757	6.801906	0.101846	0.177437	0.477039	0.999979	0.001273	0.002218	0.005963	-0.281824	0.557467	0.780901	-0.910628	-0.411768	-0.034690	0.302211	-0.720887	0.623691
10851		9.384727	0.353686	7.538333	0.181664	0.100420	0.402975	0.999984	0.002271	0.001255	0.005037	-0.291949	0.554163	0.779531	-0.906411	-0.420442	-0.040579	0.305260	-0.718423	0.625047
10852		9.688710	0.038470	7.969259	0.279645	-0.023739	0.332702	0.999985	0.003496	-0.000297	0.004159	-0.299324	0.549424	0.780089	-0.901882	-0.429802	-0.043343	0.311470	-0.716522	0.624166
10853		9.362969	-0.998571	7.614176	0.591416	-0.086700	0.279751	0.999966	0.007393	-0.001084	0.003497	-0.304778	0.544308	0.781562	-0.895140	-0.444001	-0.039851	0.325323	-0.711753	0.622553
10854		9.305086	-0.822045	7.092619	0.894961	-0.272768	0.207232	0.999928	0.011187	-0.003410	0.002590	-0.307081	0.536759	0.785870	-0.886148	-0.462402	-0.030439	0.347049	-0.705744	0.617643
10855		9.496381	-0.449172	7.634670	1.203333	-0.400941	0.138818	0.999873	0.015041	-0.005012	0.001735	-0.306530	0.527473	0.792346	-0.874226	-0.485284	-0.015147	0.376523	-0.697332	0.609884
10856		9.130190	-0.761847	7.206950	1.442751	-0.525122	0.095218	0.999815	0.018033	-0.006564	0.001190	-0.303471	0.516674	0.800596	-0.859258	-0.511523	0.004410	0.411802	-0.686580	0.599189
10857		8.356559	-0.864360	4.618949	1.761872	-0.748852	0.199450	0.999711	0.022021	-0.009360	0.002493	-0.299819	0.500892	0.811921	-0.838708	-0.543966	0.025874	0.454618	-0.673207	0.583193
10858		11.236761	1.076498	5.948985	1.590376	-0.838206	0.285956	0.999741	0.019878	-0.010477	0.003574	-0.296075	0.481992	0.824635	-0.817880	-0.573870	0.041772	0.493367	-0.662085	0.564120
10859		10.665576	4.794597	5.818053	0.762607	-0.686292	0.209302	0.999914	0.009532	-0.008578	0.002616	-0.291440	0.466758	0.834985	-0.806977	-0.588677	0.047407	0.513664	-0.659998	0.548227
10860		9.513129	1.303118	4.024763	-0.025717	-0.540255	0.051729	0.999977	-0.000321	-0.006753	0.000647	-0.284232	0.456744	0.842969	-0.807011	-0.588675	0.046853	0.517635	-0.666968	0.535918
10861		9.940812	0.960744	2.110052	-0.097308	-0.516746	0.036570	0.999978	-0.001216	-0.006459	0.000457	-0.276645	0.446957	0.850704	-0.808079	-0.587292	0.045777	0.520072	-0.674772	0.523648
10862		9.959477	0.432423	2.404311	-0.509155	-0.472751	0.068037	0.999962	-0.006364	-0.005909	0.000850	-0.269734	0.436908	0.858112	-0.814417	-0.578983	0.038790	0.513780	-0.688397	0.511996
10863		10.152987	-1.373273	3.217253	-0.452060	-0.404324	0.129706	0.999970	-0.005651	-0.005054	0.001621	-0.264780	0.426641	0.864794	-0.819815	-0.571785	0.031079	0.507736	-0.700742	0.501164
10864		9.916227	-0.550852	3.287056	-0.229199	-0.350761	0.264262	0.999981	-0.002865	-0.004384	0.003303	-0.263379	0.414875	0.870925	-0.821724	-0.569431	0.022755	0.505371	-0.709667	0.490890
10865		9.524490	-0.629764	4.492181	-0.207270	-0.282344	0.311643	0.999983	-0.002591	-0.003529	0.003896	-0.263894	0.403568	0.876067	-0.822983	-0.567900	0.013704	0.503049	-0.717372	0.481996
10866		9.555211	-0.676687	5.298754	-0.117997	-0.246917	0.268006	0.999989	-0.001475	-0.003086	0.003350	-0.264121	0.393446	0.880591	-0.823529	-0.567238	0.006434	0.502036	-0.723493	0.473833
10867		9.425112	-0.448302	5.353746	-0.031733	-0.274400	0.290472	0.999987	-0.000397	-0.003430	0.003631	-0.265023	0.382975	0.884926	-0.822840	-0.568273	-0.000494	0.502690	-0.728283	0.465732
10868		9.866680	0.231855	4.811213	-0.054189	-0.278796	0.326684	0.999985	-0.000677	-0.003485	0.004084	-0.266778	0.371863	0.889127	-0.822443	-0.568778	-0.008888	0.502411	-0.733628	0.457574
10869		9.830852	0.583993	4.522528	-0.203903	-0.276421	0.330470	0.999982	-0.002549	-0.003455	0.004131	-0.268598	0.360782	0.893136	-0.823872	-0.566459	-0.018946	0.499090	-0.740919	0.449387
10870		9.732162	-0.141082	4.140751	-0.269756	-0.212656	0.265421	0.999985	-0.003372	-0.002658	0.003318	-0.269927	0.352249	0.896136	-0.826388	-0.562412	-0.027848	0.494189	-0.748073	0.442904
10871		9.704871	-0.608142	3.656468	-0.099477	-0.242512	0.197015	0.999992	-0.001243	-0.003031	0.002463	-0.269878	0.344338	0.899220	-0.827221	-0.560878	-0.033493	0.492820	-0.752893	0.436212
10872		9.840424	-0.966255	3.865633	0.006589	-0.240223	0.139977	0.999994	0.000082	-0.003003	0.001750	-0.268366	0.337160	0.902387	-0.827178	-0.560755	-0.036484	0.493717	-0.756225	0.429379
10873		9.937184	-0.113638	4.567604	0.070962	-0.189915	0.120933	0.999996	0.000887	-0.002374	0.001512	-0.267116	0.331037	0.905021	-0.826411	-0.561754	-0.038437	0.495675	-0.758187	0.423626
10874		9.717378	-0.240249	4.658473	-0.099603	-0.134072	0.072178	0.999997	-0.001245	-0.001676	0.000902	-0.265542	0.326837	0.907009	-0.827976	-0.559272	-0.040873	0.493906	-0.761835	0.419123
10875		9.259490	-1.189372	3.096857	-0.050927	-0.172396	0.036659	0.999997	-0.000637	-0.002155	0.000458	-0.263132	0.322799	0.909155	-0.829144	-0.557451	-0.042050	0.493235	-0.764885	0.414330
10876		9.356822	-2.285118	3.477261	-0.072339	-0.149640	0.027796	0.999998	-0.000904	-0.001870	0.000347	-0.260490	0.318707	0.911356	-0.831005	-0.554554	-0.043593	0.491503	-0.768697	0.409303
10877		9.912683	-1.583866	4.131682	0.159499	-0.108040	0.047854	0.999997	0.001994	-0.001350	0.000598	-0.258923	0.315366	0.912964	-0.829704	-0.556540	-0.043064	0.494520	-0.768640	0.405761
10878		10.193730	-0.965336	3.576946	0.155670	-0.109245	0.077088	0.999997	0.001946	-0.001366	0.000964	-0.257960	0.311575	0.914537	-0.828426	-0.558413	-0.043424	0.497159	-0.768828	0.402165
10879		9.519683	-1.046611	2.747313	0.120730	-0.145310	0.096098	0.999996	0.001509	-0.001816	0.001201	-0.256964	0.306774	0.916439	-0.827533	-0.559634	-0.044700	0.499158	-0.769870	0.397671
10880		9.343674	-1.307961	3.660898	0.087851	-0.135674	0.100309	0.999997	0.001098	-0.001696	0.001254	-0.256340	0.302140	0.918151	-0.827179	-0.559998	-0.046660	0.500065	-0.771436	0.393474
10881		9.229876	-0.390062	5.379340	0.035104	-0.041986	0.076033	0.999999	0.000439	-0.000525	0.000950	-0.256404	0.299681	0.918939	-0.827467	-0.559420	-0.048445	0.499554	-0.772813	0.391414
10882		10.618083	-0.031445	4.605468	-0.069567	0.111031	0.011848	0.999999	-0.000870	0.001388	0.000148	-0.257289	0.301349	0.918145	-0.829497	-0.556281	-0.049868	0.495719	-0.774429	0.393093
10883		9.548145	-0.250700	3.049618	-0.131779	0.080583	-0.072840	0.999998	-0.001647	0.001007	-0.000910	-0.255715	0.303423	0.917902	-0.832737	-0.551433	-0.049707	0.491079	-0.777082	0.393681
10884		9.278532	-1.512690	3.223331	-0.036519	0.022251	-0.129331	0.999999	-0.000456	0.000278	-0.001617	-0.252122	0.305255	0.918288	-0.835198	-0.547922	-0.047170	0.488751	-0.778846	0.393092
10885		9.461508	-1.475114	4.207594	0.153895	0.086264	-0.130067	0.999996	0.001924	0.001078	-0.001626	-0.249270	0.308295	0.918052	-0.835327	-0.548089	-0.042753	0.489993	-0.777530	0.394149
10886		9.942234	-0.364069	4.432107	0.038574	0.140209	-0.117221	0.999997	0.000482	0.001753	-0.001465	-0.247572	0.312135	0.917213	-0.836836	-0.545985	-0.040074	0.488276	-0.777478	0.396377
10887		9.637441	-0.390920	4.417182	-0.134151	0.148722	-0.118374	0.999996	-0.001677	0.001859	-0.001480	-0.245820	0.316391	0.916226	-0.840342	-0.540670	-0.038757	0.483113	-0.779470	0.398784
10888		9.629059	-1.006052	4.194823	-0.153374	0.113080	-0.167292	0.999995	-0.001917	0.001413	-0.002091	-0.242631	0.320516	0.915642	-0.844312	-0.534601	-0.036595	0.477773	-0.781967	0.400326
10889		9.585636	-1.307461	4.173799	-0.001371	0.094015	-0.186121	0.999997	-0.000017	0.001175	-0.002327	-0.238811	0.324683	0.915178	-0.846597	-0.531245	-0.032442	0.475650	-0.782534	0.401743
10890		9.677832	-0.778682	4.613370	0.130827	0.117978	-0.189393	0.999995	0.001635	0.001475	-0.002367	-0.235168	0.328807	0.914649	-0.847234	-0.530527	-0.027116	0.476330	-0.781298	0.403340
10891		9.846643	-0.204163	4.410735	0.055476	0.125898	-0.187847	0.999996	0.000693	0.001574	-0.002348	-0.231714	0.333725	0.913748	-0.848684	-0.528433	-0.022217	0.475441	-0.780632	0.405672
10892		9.664529	-0.184807	4.600899	-0.082495	0.093828	-0.160484	0.999997	-0.001031	0.001173	-0.002006	-0.228625	0.337415	0.913171	-0.851533	-0.523934	-0.019600	0.471828	-0.782077	0.407105
10893		9.782125	-0.784817	4.437219	-0.203062	0.122229	-0.137977	0.999994	-0.002538	0.001528	-0.001725	-0.226133	0.341315	0.912342	-0.855654	-0.517214	-0.018588	0.465532	-0.784852	0.409007
10894		9.632537	-0.805873	4.515653	-0.103175	0.096172	-0.084479	0.999998	-0.001290	0.001202	-0.001056	-0.224503	0.343984	0.911742	-0.858244	-0.512933	-0.017809	0.461536	-0.786495	0.410377
10895		9.691304	-0.113404	4.661729	-0.066975	0.074037	-0.089268	0.999999	-0.000837	0.000925	-0.001116	-0.222644	0.346070	0.911409	-0.860435	-0.509283	-0.016813	0.458346	-0.787951	0.411159
10896		9.729032	0.167284	4.787428	-0.106555	0.032817	-0.100679	0.999998	-0.001332	0.000410	-0.001258	-0.220099	0.347809	0.911365	-0.863068	-0.504842	-0.015770	0.454610	-0.790041	0.411298
10897		9.746058	0.272881	4.611936	-0.187339	0.017017	-0.119294	0.999996	-0.002342	0.000213	-0.001491	-0.216946	0.349812	0.911354	-0.866751	-0.498517	-0.014979	0.449085	-0.793166	0.411351
10898		9.919589	-0.078553	4.659361	-0.171999	0.086669	-0.194540	0.999994	-0.002150	0.001083	-0.002432	-0.212747	0.353588	0.910887	-0.870524	-0.491971	-0.012346	0.443765	-0.795575	0.412472
10899		9.987107	-0.502733	4.183786	-0.102754	0.039043	-0.210212	0.999996	-0.001284	0.000488	-0.002628	-0.207700	0.356791	0.910802	-0.873540	-0.486678	-0.008555	0.440215	-0.797398	0.412755
10900		10.030744	-0.240615	4.556100	-0.003472	0.017569	-0.209821	0.999997	-0.000043	0.000220	-0.002623	-0.202527	0.359439	0.910926	-0.875392	-0.483398	-0.003885	0.438943	-0.798204	0.412552
10901		9.924051	-0.631864	4.991034	-0.075657	0.077174	-0.299585	0.999992	-0.000946	0.000965	-0.003745	-0.196049	0.364452	0.910351	-0.878448	-0.477833	0.002118	0.435768	-0.799281	0.413831
10902		9.652009	-1.749605	4.644693	0.044796	0.048747	-0.220267	0.999996	0.000560	0.000609	-0.002753	-0.191015	0.368146	0.909935	-0.879843	-0.475204	0.007562	0.435189	-0.799155	0.414682
10903		9.801283	-1.446362	4.270783	0.177542	-0.038875	-0.045800	0.999997	0.002219	-0.000486	-0.000573	-0.188748	0.367583	0.910635	-0.878852	-0.476981	0.010376	0.438170	-0.798355	0.413081
10904		9.516593	-0.607033	4.691848	0.112903	-0.053556	0.052401	0.999999	0.001411	-0.000669	0.000655	-0.188595	0.365713	0.911420	-0.878162	-0.478255	0.010190	0.439618	-0.798452	0.411352
10905		9.430821	-0.391107	5.338576	-0.122759	0.006179	0.061103	0.999999	-0.001534	0.000077	0.000764	-0.189173	0.364856	0.911643	-0.879979	-0.474953	0.007482	0.435717	-0.800812	0.410914
10906		9.549225	-1.003179	4.479493	-0.045141	-0.002850	0.081397	0.999999	-0.000564	-0.000036	0.001017	-0.190394	0.363608	0.911888	-0.880774	-0.473511	0.004911	0.433575	-0.802232	0.410411
10907		9.438346	-0.513069	4.384073	0.157475	0.004959	0.082711	0.999998	0.001968	0.000062	0.001034	-0.191829	0.362585	0.911994	-0.879359	-0.476140	0.004336	0.435809	-0.801139	0.410180
10908		9.453688	-0.291619	5.258034	0.226235	0.064992	0.076523	0.999995	0.002828	0.000812	0.000957	-0.193674	0.362765	0.911533	-0.877211	-0.480083	0.004678	0.439308	-0.798700	0.411201
10909		9.820571	-0.232684	5.029799	0.216929	0.035565	0.166009	0.999994	0.002712	0.000445	0.002075	-0.196833	0.361250	0.911458	-0.874702	-0.484650	0.003192	0.442891	-0.796626	0.411382
10910		9.832301	-0.118712	4.739344	0.223345	0.024504	0.255434	0.999991	0.002792	0.000306	0.003193	-0.202200	0.358439	0.911393	-0.871574	-0.490264	-0.000551	0.446626	-0.794458	0.411537
10911		9.634096	1.559622	4.131893	0.100760	-0.008229	0.302859	0.999992	0.001259	-0.000103	0.003786	-0.208452	0.354311	0.911598	-0.869443	-0.493986	-0.006815	0.447902	-0.794004	0.411026
10912		9.716714	1.950626	4.191758	-0.246470	-0.015630	0.262116	0.999990	-0.003081	-0.000195	0.003276	-0.213545	0.350459	0.911908	-0.871299	-0.490507	-0.015526	0.441856	-0.797860	0.410100
10913		9.907975	0.679095	4.964132	-0.268147	-0.031313	0.168053	0.999992	-0.003352	-0.000391	0.002101	-0.216268	0.347665	0.912336	-0.873856	-0.485684	-0.022066	0.435435	-0.802023	0.408847
10914		9.897546	0.436387	4.777522	0.005805	-0.010710	0.086427	0.999999	0.000073	-0.000134	0.001080	-0.217406	0.346425	0.912538	-0.873850	-0.485611	-0.023838	0.434880	-0.802603	0.408298
10915		10.028749	0.845072	4.574819	-0.042104	-0.001167	0.050535	1.000000	-0.000526	-0.000015	0.000632	-0.217650	0.345697	0.912755	-0.874549	-0.484286	-0.025121	0.433350	-0.803717	0.407734
10916		9.581195	0.252563	4.154153	-0.184121	-0.031443	0.051972	0.999997	-0.002302	-0.000393	0.000650	-0.218130	0.344426	0.913121	-0.876636	-0.480325	-0.028237	0.428870	-0.806634	0.406710
10917		9.605020	-0.384861	3.820547	-0.311171	-0.017429	0.067045	0.999992	-0.003890	-0.000218	0.000838	-0.218842	0.343261	0.913389	-0.879992	-0.473857	-0.032759	0.421571	-0.810945	0.405767
10918		9.703178	-0.927440	3.954088	-0.263715	-0.034006	0.116507	0.999993	-0.003296	-0.000425	0.001456	-0.220386	0.340992	0.913868	-0.882504	-0.468774	-0.037909	0.415471	-0.814847	0.404238
10919		9.685386	-1.198480	4.276193	-0.059364	-0.064074	0.130991	0.999998	-0.000742	-0.000801	0.001637	-0.222322	0.338268	0.914411	-0.882805	-0.467899	-0.041548	0.413797	-0.816483	0.402649
10920		9.702005	0.111611	4.740772	-0.045410	-0.043796	0.130603	0.999998	-0.000568	-0.000547	0.001633	-0.224157	0.335675	0.914918	-0.882957	-0.467304	-0.044877	0.412481	-0.817893	0.401136
10921		9.785984	0.245206	4.073371	-0.253146	0.003444	0.073123	0.999995	-0.003164	0.000043	0.000914	-0.225253	0.334665	0.915019	-0.885493	-0.462064	-0.048986	0.406404	-0.821277	0.400425
10922		9.656829	-0.325178	3.863861	-0.276976	0.000768	0.010276	0.999994	-0.003462	0.000010	0.000128	-0.224942	0.334438	0.915179	-0.888581	-0.455780	-0.051847	0.399780	-0.824873	0.399700
10923		9.652194	-0.981825	4.138286	-0.166809	-0.005513	0.007839	0.999998	-0.002085	-0.000069	0.000098	-0.224553	0.333944	0.915455	-0.890502	-0.451809	-0.053620	0.395705	-0.827255	0.398833
10924		9.829350	-0.783891	4.302399	-0.142080	-0.002642	0.063173	0.999998	-0.001776	-0.000033	0.000790	-0.225607	0.333163	0.915480	-0.891877	-0.448738	-0.056485	0.391991	-0.829239	0.398379
10925		9.544622	-0.834346	4.185086	-0.210993	-0.000572	0.094749	0.999996	-0.002637	-0.000007	0.001184	-0.227131	0.331982	0.915532	-0.893751	-0.444455	-0.060563	0.386807	-0.832014	0.397660
10926		9.638568	-0.836263	4.129871	-0.153812	0.016182	0.099112	0.999997	-0.001923	0.000202	0.001239	-0.228822	0.331171	0.915405	-0.895045	-0.441350	-0.064064	0.382798	-0.833988	0.397404
10927		9.756210	-0.632337	4.079176	-0.103735	0.003656	0.108402	0.999998	-0.001297	0.000046	0.001355	-0.230608	0.329761	0.915466	-0.895746	-0.439435	-0.067351	0.380078	-0.835556	0.396720
10928		9.643167	-0.582869	4.457934	-0.032132	-0.011266	0.097349	0.999999	-0.000402	-0.000141	0.001217	-0.232206	0.328368	0.915563	-0.895808	-0.438930	-0.069772	0.378957	-0.836370	0.396077
10929		9.649134	-0.142822	4.476083	-0.030119	-0.007763	0.078109	0.999999	-0.000376	-0.000097	0.000976	-0.233379	0.327223	0.915674	-0.895946	-0.438336	-0.071708	0.377908	-0.837130	0.395473
10930		9.777726	-0.501514	4.132926	-0.136029	0.020610	0.094370	0.999998	-0.001700	0.000258	0.001180	-0.235339	0.326398	0.915467	-0.896914	-0.435763	-0.075204	0.374380	-0.838794	0.395303
10931		9.607544	-0.918725	4.234155	-0.177044	0.006552	0.122838	0.999996	-0.002213	0.000082	0.001535	-0.237734	0.324823	0.915409	-0.898052	-0.432604	-0.079722	0.370114	-0.841037	0.394552
10932		9.654404	-1.037825	4.335116	-0.130447	-0.016350	0.129144	0.999997	-0.001631	-0.000204	0.001614	-0.239961	0.322943	0.915493	-0.898757	-0.430371	-0.083760	0.366952	-0.842905	0.393520
10933		9.529665	-1.187344	4.018559	-0.003464	-0.035923	0.097655	0.999999	-0.000043	-0.000449	0.001221	-0.241242	0.321091	0.915807	-0.898502	-0.430514	-0.085741	0.366737	-0.843539	0.392359
10934		9.510482	-0.640417	4.197676	0.122925	-0.033344	0.068311	0.999998	0.001537	-0.000417	0.000854	-0.242102	0.319344	0.916191	-0.897174	-0.433208	-0.086079	0.369412	-0.842823	0.391388
10935		9.709012	-0.606179	4.255311	0.010543	-0.012817	0.046653	1.000000	0.000132	-0.000160	0.000583	-0.242562	0.318253	0.916449	-0.897017	-0.433365	-0.086926	0.369492	-0.843155	0.390596
10936		9.679519	-1.261052	3.981884	-0.014231	-0.018831	0.041006	1.000000	-0.000178	-0.000235	0.000513	-0.242992	0.317206	0.916698	-0.897104	-0.432971	-0.087977	0.368997	-0.843751	0.389775
10937		9.647817	-1.504760	3.917290	0.104121	-0.053206	0.048753	0.999999	0.001302	-0.000665	0.000609	-0.243287	0.315405	0.917241	-0.896058	-0.435118	-0.088048	0.371337	-0.843322	0.388480
10938		9.566441	-0.989249	4.493540	0.187687	-0.047889	0.059197	0.999997	0.002346	-0.000599	0.000740	-0.243834	0.313414	0.917778	-0.894142	-0.439132	-0.087594	0.375573	-0.841983	0.387312
10939		9.856583	-0.595441	4.398136	0.126374	-0.009929	0.053521	0.999999	0.001580	-0.000124	0.000669	-0.244598	0.312190	0.917992	-0.892797	-0.441856	-0.087619	0.378266	-0.841012	0.386799
10940		9.630316	-0.719157	4.080877	0.072814	-0.012811	0.048922	0.999999	0.000910	-0.000160	0.000612	-0.244954	0.311115	0.918262	-0.892032	-0.443375	-0.087738	0.379837	-0.840611	0.386131
10941		9.540989	-0.883245	3.946196	0.062672	-0.014552	0.031950	1.000000	0.000783	-0.000182	0.000399	-0.245089	0.310202	0.918535	-0.891438	-0.444571	-0.087721	0.381143	-0.840316	0.385485
10942		9.699484	-0.959480	4.204979	0.074926	-0.016436	0.034386	0.999999	0.000937	-0.000205	0.000430	-0.245267	0.309261	0.918804	-0.890712	-0.446040	-0.087635	0.382722	-0.839884	0.384862
10943		9.620439	-0.928292	4.333013	0.090808	-0.015262	0.038087	0.999999	0.001135	-0.000191	0.000476	-0.245581	0.308014	0.919140	-0.889761	-0.447937	-0.087623	0.384727	-0.839333	0.384063
10944		9.750773	-0.590367	4.250154	0.057930	0.005710	0.028630	1.000000	0.000724	0.000071	0.000358	-0.245977	0.308032	0.919028	-0.889251	-0.448967	-0.087527	0.385652	-0.838776	0.384353
10945		9.648526	-0.749415	4.161647	0.010448	0.006075	0.005565	1.000000	0.000131	0.000076	0.000070	-0.245769	0.307870	0.919137	-0.889289	-0.448911	-0.087423	0.385697	-0.838865	0.384114
10946		9.523241	-0.973133	4.070606	0.038182	0.008662	-0.001279	1.000000	0.000477	0.000108	-0.000016	-0.245372	0.307927	0.919225	-0.889111	-0.449386	-0.086796	0.386360	-0.838590	0.384048
10947		9.643720	-0.799863	4.172651	0.074470	0.003624	0.009445	1.000000	0.000931	0.000045	0.000118	-0.245171	0.307608	0.919385	-0.888497	-0.450727	-0.086130	0.387897	-0.837987	0.383814
10948		9.773112	-0.649302	4.180548	0.028807	0.025451	0.023593	1.000000	0.000360	0.000318	0.000295	-0.245753	0.307465	0.919277	-0.888192	-0.451254	-0.086515	0.388228	-0.837756	0.383985
10949		9.647734	-0.639747	4.288743	-0.036729	0.015127	0.032990	1.000000	-0.000459	0.000189	0.000412	-0.246277	0.306998	0.919293	-0.888469	-0.450503	-0.087573	0.387260	-0.838331	0.383707
10950		9.610343	-0.662524	4.170498	-0.038076	0.005524	0.031587	1.000000	-0.000476	0.000069	0.000395	-0.246465	0.306451	0.919425	-0.888783	-0.449732	-0.088352	0.386420	-0.838945	0.383212
10951		9.720200	-0.549773	4.111236	-0.037286	0.005842	0.023084	1.000000	-0.000466	0.000073	0.000289	-0.246726	0.306024	0.919498	-0.889117	-0.448909	-0.089170	0.385483	-0.839542	0.382848
10952		9.687979	-0.757088	4.067223	-0.060394	0.011397	0.015920	1.000000	-0.000755	0.000142	0.000199	-0.246867	0.305746	0.919552	-0.889711	-0.447557	-0.090045	0.384021	-0.840364	0.382513
10953		9.668321	-0.820590	4.155039	-0.062950	0.034021	0.016017	1.000000	-0.000787	0.000425	0.000200	-0.247172	0.306040	0.919372	-0.890332	-0.446156	-0.090849	0.382380	-0.841002	0.382754
10954		9.682129	-0.843702	4.136060	-0.078436	0.025413	0.015740	0.999999	-0.000980	0.000318	0.000197	-0.247589	0.306257	0.919188	-0.891094	-0.444406	-0.091953	0.380331	-0.841849	0.382934
10955		9.541266	-0.927061	4.119372	-0.072792	0.012967	0.017140	1.000000	-0.000910	0.000162	0.000214	-0.247808	0.306131	0.919171	-0.891783	-0.442814	-0.092944	0.378568	-0.842733	0.382735
10956		9.607077	-0.942413	4.060239	-0.086294	0.033927	0.024162	0.999999	-0.001079	0.000424	0.000302	-0.248219	0.306333	0.918992	-0.892552	-0.441024	-0.094068	0.376481	-0.843598	0.382889
10957		9.708997	-0.921787	4.068498	-0.090967	0.032293	0.035032	0.999999	-0.001137	0.000404	0.000438	-0.248896	0.306219	0.918848	-0.893273	-0.439234	-0.095587	0.374318	-0.844573	0.382861
10958		9.620361	-0.890331	4.121073	-0.092139	0.022632	0.040088	0.999999	-0.001152	0.000283	0.000501	-0.249536	0.306121	0.918707	-0.893989	-0.437451	-0.097060	0.372177	-0.845534	0.382828
10959		9.697515	-0.854634	4.111640	-0.098106	0.020486	0.039518	0.999999	-0.001226	0.000256	0.000494	-0.250247	0.305814	0.918615	-0.894747	-0.435516	-0.098758	0.369870	-0.846642	0.382613
10960		9.639619	-1.006490	4.050633	-0.092426	0.020853	0.032539	0.999999	-0.001155	0.000261	0.000407	-0.250866	0.305739	0.918472	-0.895491	-0.433646	-0.100238	0.367645	-0.847629	0.382573
10961		9.585839	-1.039129	4.017615	-0.048244	0.034673	0.027789	1.000000	-0.000603	0.000433	0.000347	-0.251416	0.306040	0.918221	-0.895852	-0.432705	-0.101072	0.366386	-0.848001	0.382955
10962		9.619678	-0.948088	4.135952	-0.031130	0.020335	0.029972	1.000000	-0.000389	0.000254	0.000375	-0.251938	0.305878	0.918132	-0.896037	-0.432125	-0.101911	0.365575	-0.848355	0.382947
10963		9.675675	-0.982265	4.091562	0.001567	0.010183	0.035712	1.000000	0.000020	0.000127	0.000446	-0.252423	0.305465	0.918136	-0.895883	-0.432311	-0.102475	0.365618	-0.848410	0.382785
10964		9.623912	-0.948873	4.147947	0.002833	0.012471	0.031761	1.000000	0.000035	0.000156	0.000397	-0.252936	0.305119	0.918110	-0.895740	-0.432471	-0.103049	0.365613	-0.848452	0.382695
10965		9.648043	-0.950921	4.131494	-0.009936	0.008446	0.022535	1.000000	-0.000124	0.000106	0.000282	-0.253111	0.304882	0.918140	-0.895772	-0.432324	-0.103385	0.365414	-0.848612	0.382531
10966		9.589506	-1.001489	4.116971	0.011778	-0.004296	0.021277	1.000000	0.000147	-0.000054	0.000266	-0.253273	0.304095	0.918357	-0.895613	-0.432562	-0.103766	0.365692	-0.848773	0.381908
10967		9.661638	-1.006314	4.207451	0.014116	0.008718	0.023988	1.000000	0.000176	0.000109	0.000300	-0.253581	0.303840	0.918356	-0.895409	-0.432926	-0.104011	0.365978	-0.848679	0.381843
10968		9.651957	-0.848285	4.186872	0.011274	0.020847	0.027120	1.000000	0.000141	0.000261	0.000339	-0.254030	0.303595	0.918313	-0.895196	-0.433273	-0.104395	0.366187	-0.848590	0.381841
10969		9.639130	-0.799802	4.118974	0.007434	0.008833	0.029336	1.000000	0.000093	0.000110	0.000367	-0.254402	0.303179	0.918348	-0.895006	-0.433568	-0.104800	0.366393	-0.848588	0.381647
10970		9.625359	-0.860340	4.130580	-0.012503	0.008376	0.016639	1.000000	-0.000156	0.000105	0.000208	-0.254528	0.302884	0.918410	-0.895078	-0.433335	-0.105151	0.366131	-0.848812	0.381400
10971		9.632047	-0.995564	4.032407	0.006105	-0.003926	0.020363	1.000000	0.000076	-0.000049	0.000255	-0.254666	0.302418	0.918525	-0.894953	-0.433534	-0.105392	0.366339	-0.848877	0.381056
10972		9.645197	-0.895053	4.202524	0.016287	-0.005927	0.029494	1.000000	0.000204	-0.000074	0.000369	-0.254870	0.301669	0.918715	-0.894670	-0.434050	-0.105675	0.366889	-0.848879	0.380521
10973		9.598365	-0.867683	4.204600	-0.035235	0.012934	0.026723	1.000000	-0.000440	0.000162	0.000334	-0.255236	0.301374	0.918710	-0.894871	-0.433452	-0.106423	0.366144	-0.849290	0.380323
10974		9.650009	-1.141768	3.959242	-0.053099	0.027673	0.025109	1.000000	-0.000664	0.000346	0.000314	-0.255710	0.301324	0.918594	-0.895246	-0.432445	-0.107357	0.364892	-0.849821	0.380340
10975		9.579653	-1.138822	3.961527	-0.016664	0.023547	0.031238	1.000000	-0.000208	0.000294	0.000390	-0.256305	0.301350	0.918420	-0.895247	-0.432284	-0.107998	0.364474	-0.849893	0.380579
10976		9.594889	-1.085132	4.088581	0.000390	0.020833	0.032493	1.000000	0.000005	0.000260	0.000406	-0.256842	0.301217	0.918314	-0.895075	-0.432521	-0.108470	0.364517	-0.849820	0.380701
10977		9.664799	-0.989050	4.123815	0.019389	0.023978	0.021187	1.000000	0.000242	0.000300	0.000265	-0.257138	0.301096	0.918271	-0.894819	-0.433023	-0.108586	0.364937	-0.849607	0.380773
10978		9.645326	-0.951555	4.075920	0.024578	0.020625	0.017534	1.000000	0.000307	0.000258	0.000219	-0.257322	0.300963	0.918263	-0.894531	-0.433626	-0.108550	0.365514	-0.849346	0.380803
10979		9.563773	-0.951281	4.122865	-0.001330	0.009348	0.017933	1.000000	-0.000017	0.000117	0.000224	-0.257528	0.300747	0.918276	-0.894476	-0.433672	-0.108820	0.365503	-0.849400	0.380694
10980		9.597861	-1.020980	4.123080	-0.004411	0.010905	0.022921	1.000000	-0.000055	0.000136	0.000287	-0.257744	0.300394	0.918331	-0.894402	-0.433741	-0.109148	0.365530	-0.849489	0.380468
10981		9.678972	-1.008230	4.115775	0.022016	-0.000446	0.024765	1.000000	0.000275	-0.000006	0.000310	-0.257985	0.299874	0.918433	-0.894079	-0.434364	-0.109321	0.366151	-0.849355	0.380170
10982		9.590575	-1.015530	4.063544	0.019950	-0.006081	0.020187	1.000000	0.000249	-0.000076	0.000252	-0.257991	0.299101	0.918684	-0.893815	-0.434882	-0.109420	0.366791	-0.849362	0.379536
10983		9.635472	-0.944817	4.075511	-0.001307	-0.013174	0.029481	1.000000	-0.000016	-0.000165	0.000369	-0.258287	0.298339	0.918848	-0.893670	-0.435045	-0.109956	0.366936	-0.849547	0.378983
10984		9.604289	-0.964985	4.149063	-0.025452	-0.004274	0.037084	1.000000	-0.000318	-0.000053	0.000464	-0.258757	0.297522	0.918981	-0.893703	-0.434738	-0.110893	0.366523	-0.849990	0.378388
10985		9.613406	-0.930627	4.074925	-0.022720	-0.003515	0.026561	1.000000	-0.000284	-0.000044	0.000332	-0.258884	0.296831	0.919168	-0.893761	-0.434486	-0.111417	0.366294	-0.850360	0.377778
10986		9.624121	-0.948794	3.991009	-0.017807	-0.022219	0.015646	1.000000	-0.000223	-0.000278	0.000196	-0.258648	0.295798	0.919568	-0.893856	-0.434205	-0.111745	0.366227	-0.850864	0.376707
10987		9.608517	-1.047125	3.953011	0.004028	0.001180	0.008462	1.000000	0.000050	0.000015	0.000106	-0.258536	0.295406	0.919725	-0.893799	-0.434322	-0.111748	0.366446	-0.850940	0.376322
10988		9.652088	-1.031335	4.065211	0.010838	0.006781	0.011267	1.000000	0.000135	0.000085	0.000141	-0.258482	0.295108	0.919836	-0.893643	-0.434663	-0.111670	0.366864	-0.850869	0.376074
10989		9.574696	-1.000330	4.054549	0.009741	-0.000390	0.020118	1.000000	0.000122	-0.000005	0.000251	-0.258622	0.294565	0.919971	-0.893459	-0.434984	-0.111892	0.367213	-0.850894	0.375678
10990		9.626304	-1.014504	4.004934	-0.000176	-0.013445	0.017402	1.000000	-0.000002	-0.000168	0.000218	-0.258620	0.293761	0.920228	-0.893393	-0.435039	-0.112203	0.367374	-0.851144	0.374954
10991		9.635300	-1.101734	3.964913	-0.000670	0.000148	0.010258	1.000000	-0.000008	0.000002	0.000128	-0.258572	0.293338	0.920377	-0.893360	-0.435079	-0.112316	0.367490	-0.851269	0.374555
10992		9.576736	-1.102859	3.987408	0.021215	0.006902	0.008820	1.000000	0.000265	0.000086	0.000110	-0.258508	0.293057	0.920484	-0.893139	-0.435574	-0.112154	0.368071	-0.851113	0.374340
10993		9.584191	-1.004743	4.029441	0.025452	0.007048	0.005657	1.000000	0.000318	0.000088	0.000071	-0.258407	0.292801	0.920594	-0.892893	-0.436138	-0.111915	0.368737	-0.850912	0.374141
10994		9.588885	-0.978660	3.985808	0.001919	0.015894	-0.000250	1.000000	0.000024	0.000199	-0.000003	-0.258229	0.292706	0.920674	-0.892922	-0.436110	-0.111794	0.368793	-0.850959	0.373980
10995		9.597686	-1.008900	4.027571	0.001832	0.018091	-0.003493	1.000000	0.000023	0.000226	-0.000044	-0.257993	0.292783	0.920716	-0.892950	-0.436122	-0.111528	0.368891	-0.850926	0.373957
10996		9.592119	-1.097089	3.995128	-0.005509	0.018032	-0.007660	1.000000	-0.000069	0.000225	-0.000096	-0.257732	0.292943	0.920738	-0.893077	-0.435921	-0.111296	0.368765	-0.850975	0.373971
10997		9.626750	-1.119067	3.974189	-0.006209	0.022473	0.002621	1.000000	-0.000078	0.000281	0.000033	-0.257615	0.292974	0.920761	-0.893144	-0.435802	-0.111222	0.368685	-0.851025	0.373937
10998		9.614846	-1.060721	3.994577	0.005538	0.045673	-0.003013	1.000000	0.000069	0.000571	-0.000038	-0.257654	0.293615	0.920546	-0.893139	-0.435880	-0.110956	0.368669	-0.850764	0.374545
10999		9.589911	-0.961375	4.055172	0.000945	0.039327	-0.008682	1.000000	0.000012	0.000492	-0.000109	-0.257619	0.294326	0.920328	-0.893205	-0.435824	-0.110648	0.368534	-0.850547	0.375170
11000		9.605514	-0.958006	4.033408	0.003474	0.027233	-0.010902	1.000000	0.000043	0.000340	-0.000136	-0.257271	0.294636	0.920327	-0.893261	-0.435827	-0.110178	0.368641	-0.850438	0.375313
11001		9.671192	-1.056032	3.994841	0.003625	0.034168	-0.013414	1.000000	0.000045	0.000427	-0.000168	-0.257000	0.295158	0.920235	-0.893340	-0.435783	-0.109715	0.368640	-0.850279	0.375672
11002		9.559997	-1.083627	3.930326	0.019069	0.029296	-0.013677	1.000000	0.000238	0.000366	-0.000171	-0.256660	0.295516	0.920215	-0.893284	-0.436046	-0.109118	0.369010	-0.850020	0.375895
11003		9.591965	-1.009704	4.020369	0.031087	0.015495	-0.017829	1.000000	0.000389	0.000194	-0.000223	-0.256135	0.295684	0.920308	-0.893136	-0.436550	-0.108314	0.369734	-0.849703	0.375902
11004		9.635380	-0.956471	4.057938	0.032437	0.018789	-0.018527	1.000000	0.000405	0.000235	-0.000232	-0.255611	0.295971	0.920361	-0.892955	-0.437139	-0.107423	0.370532	-0.849300	0.376026
11005		9.624382	-0.954154	4.028995	0.024165	0.024955	-0.023803	1.000000	0.000302	0.000312	-0.000298	-0.254993	0.296412	0.920390	-0.892894	-0.437495	-0.106481	0.371104	-0.848963	0.376223
11006		9.604483	-0.969254	3.994400	0.007446	0.023824	-0.021216	1.000000	0.000093	0.000298	-0.000265	-0.254364	0.296719	0.920466	-0.892968	-0.437527	-0.105725	0.371358	-0.848839	0.376251
11007		9.557836	-1.014836	4.011335	0.002655	0.017388	-0.012050	1.000000	0.000033	0.000217	-0.000151	-0.254001	0.296956	0.920490	-0.893014	-0.437545	-0.105264	0.371497	-0.848747	0.376322
11008		9.636016	-0.989994	3.998709	0.014598	0.012094	-0.005448	1.000000	0.000182	0.000151	-0.000068	-0.253562	0.296695	0.920694	-0.892933	-0.437813	-0.104831	0.371989	-0.848700	0.375942
11009		9.581180	-0.941377	4.048453	-0.009140	0.030048	-0.008850	1.000000	-0.000114	0.000376	-0.000111	-0.253130	0.296918	0.920741	-0.893045	-0.437697	-0.104368	0.372017	-0.848682	0.375956
11010		9.622371	-0.947940	4.011437	-0.011793	0.022397	-0.007420	1.000000	-0.000147	0.000280	-0.000093	-0.252965	0.297260	0.920677	-0.893194	-0.437437	-0.104178	0.371770	-0.848696	0.376167
11011		9.626556	-0.971107	3.977092	-0.004003	0.014840	-0.005127	1.000000	-0.000050	0.000186	-0.000064	-0.252694	0.297276	0.920746	-0.893276	-0.437322	-0.103959	0.371758	-0.848750	0.376058
11012		9.603235	-0.955723	3.972308	-0.008549	0.008415	-0.007596	1.000000	-0.000107	0.000105	-0.000095	-0.252313	0.297184	0.920880	-0.893416	-0.437090	-0.103731	0.371680	-0.848901	0.375793
11013		9.625949	-0.986461	3.995924	-0.008581	0.017001	-0.007530	1.000000	-0.000107	0.000213	-0.000094	-0.252010	0.297282	0.920931	-0.893534	-0.436909	-0.103476	0.371601	-0.848961	0.375737
11014		9.608413	-1.020533	4.056217	0.003721	0.016431	-0.004386	1.000000	0.000047	0.000205	-0.000055	-0.251765	0.297281	0.920999	-0.893545	-0.436946	-0.103222	0.371741	-0.848942	0.375641
11015		9.597797	-0.927571	4.010570	-0.000297	0.028482	0.002783	1.000000	-0.000004	0.000356	0.000035	-0.251804	0.297485	0.920922	-0.893535	-0.436984	-0.103157	0.371740	-0.848851	0.375847
11016		9.646993	-0.922768	4.024465	0.004657	0.023588	-0.001557	1.000000	0.000058	0.000295	-0.000019	-0.251665	0.297625	0.920915	-0.893497	-0.437120	-0.102902	0.371924	-0.848732	0.375935
11017		9.587455	-0.898540	4.016694	-0.006969	0.024478	-0.005875	1.000000	-0.000087	0.000306	-0.000073	-0.251530	0.297958	0.920844	-0.893579	-0.437005	-0.102680	0.371819	-0.848674	0.376169
11018		9.598302	-0.917843	3.995198	-0.002418	0.026104	-0.005043	1.000000	-0.000030	0.000326	-0.000063	-0.251368	0.298146	0.920827	-0.893657	-0.436890	-0.102494	0.371742	-0.848667	0.376260
11019		9.642185	-0.944085	4.040230	-0.003525	0.026481	-0.003610	1.000000	-0.000044	0.000331	-0.000045	-0.251286	0.298505	0.920733	-0.893693	-0.436867	-0.102273	0.371709	-0.848553	0.376551
11020		9.566558	-0.910261	3.997269	-0.004440	0.027355	-0.004729	1.000000	-0.000056	0.000342	-0.000059	-0.251126	0.298768	0.920692	-0.893749	-0.436810	-0.102031	0.371684	-0.848490	0.376718
11021		9.602272	-0.922287	4.016803	0.010562	0.015685	-0.004751	1.000000	0.000132	0.000196	-0.000059	-0.250824	0.298776	0.920772	-0.893659	-0.437092	-0.101609	0.372103	-0.848342	0.376637
11022		9.676826	-0.962699	3.994083	-0.000969	0.013247	-0.002628	1.000000	-0.000012	0.000166	-0.000033	-0.250554	0.298712	0.920866	-0.893664	-0.437141	-0.101353	0.372273	-0.848339	0.376475
11023		9.586758	-0.971263	3.989981	-0.006633	0.026471	-0.000262	1.000000	-0.000083	0.000331	-0.000003	-0.250526	0.298872	0.920822	-0.893742	-0.436988	-0.101325	0.372104	-0.848362	0.376591
11024		9.594264	-0.927448	4.050809	0.007715	0.014993	0.002520	1.000000	0.000096	0.000187	0.000031	-0.250370	0.298642	0.920939	-0.893678	-0.437147	-0.101201	0.372363	-0.848360	0.376338
11025		9.617652	-0.875596	4.004350	0.004760	0.014963	0.001667	1.000000	0.000059	0.000187	0.000021	-0.250277	0.298607	0.920975	-0.893609	-0.437324	-0.101047	0.372591	-0.848281	0.376290
11026		9.611773	-0.883825	4.005095	0.000666	0.015869	0.000618	1.000000	0.000008	0.000198	0.000008	-0.250203	0.298596	0.920999	-0.893598	-0.437367	-0.100961	0.372668	-0.848263	0.376256
11027		9.636043	-0.947895	3.987518	-0.002950	0.010149	0.000877	1.000000	-0.000037	0.000127	0.000011	-0.250082	0.298451	0.921079	-0.893623	-0.437323	-0.100924	0.372688	-0.848337	0.376069
11028		9.641599	-0.914260	3.984249	-0.003917	0.023965	-0.003351	1.000000	-0.000049	0.000300	-0.000042	-0.249979	0.298753	0.921009	-0.893650	-0.437321	-0.100697	0.372692	-0.848232	0.376301
11029		9.607874	-0.931182	4.049360	-0.004341	0.020873	-0.001514	1.000000	-0.000054	0.000261	-0.000019	-0.249911	0.298872	0.920989	-0.893696	-0.437246	-0.100614	0.372627	-0.848229	0.376373
11030		9.590578	-0.995735	4.000628	0.005187	0.020774	-0.001731	1.000000	0.000065	0.000260	-0.000022	-0.249759	0.298880	0.921027	-0.893662	-0.437362	-0.100411	0.372811	-0.848166	0.376332
11031		9.642401	-0.898967	3.981502	-0.002258	0.017430	0.001420	1.000000	-0.000028	0.000218	0.000018	-0.249694	0.298969	0.921016	-0.893631	-0.437459	-0.100266	0.372931	-0.848084	0.376399
11032		9.606539	-0.862565	4.029346	-0.006163	0.019398	-0.003797	1.000000	-0.000077	0.000242	-0.000047	-0.249487	0.299055	0.921044	-0.893684	-0.437399	-0.100056	0.372942	-0.848085	0.376386
11033		9.612960	-0.947471	3.972309	0.005854	0.019511	-0.004525	1.000000	0.000073	0.000244	-0.000057	-0.249254	0.299046	0.921110	-0.893653	-0.437526	-0.099777	0.373172	-0.848022	0.376299
11034		9.608807	-0.933366	4.008102	0.004303	0.017865	-0.001260	1.000000	0.000054	0.000223	-0.000016	-0.249169	0.299025	0.921140	-0.893624	-0.437609	-0.099667	0.373297	-0.847987	0.376254
11035		9.594842	-0.908674	3.994542	0.001610	0.011782	0.001739	1.000000	0.000020	0.000147	0.000022	-0.248985	0.298797	0.921264	-0.893577	-0.437738	-0.099529	0.373533	-0.848001	0.375988
11036		9.643377	-0.906505	3.982508	-0.005183	0.018991	0.002216	1.000000	-0.000065	0.000237	0.000028	-0.248915	0.298858	0.921263	-0.893568	-0.437781	-0.099416	0.373600	-0.847958	0.376020
11037		9.600415	-0.937995	3.972728	0.004786	0.021989	0.000190	1.000000	0.000060	0.000275	0.000002	-0.248910	0.299041	0.921205	-0.893498	-0.437961	-0.099253	0.373772	-0.847800	0.376205
11038		9.598912	-0.899995	3.998460	-0.005626	0.018611	0.002459	1.000000	-0.000070	0.000233	0.000031	-0.248928	0.299137	0.921169	-0.893504	-0.437953	-0.099233	0.373745	-0.847770	0.376299
11039		9.586814	-0.949286	3.991097	0.004827	0.014926	0.004974	1.000000	0.000060	0.000187	0.000062	-0.248850	0.298933	0.921256	-0.893411	-0.438162	-0.099152	0.374020	-0.847734	0.376106
11040		9.610524	-0.897844	3.944789	0.016407	0.014092	0.006117	1.000000	0.000205	0.000176	0.000076	-0.248950	0.298975	0.921215	-0.893185	-0.438655	-0.099012	0.374493	-0.847464	0.376243
11041		9.636492	-0.846934	3.990058	0.002787	0.010799	0.005196	1.000000	0.000035	0.000135	0.000065	-0.248879	0.298702	0.921323	-0.893107	-0.438818	-0.098988	0.374725	-0.847476	0.375986
11042		9.599282	-0.907004	3.985102	0.002565	0.020593	0.003021	1.000000	0.000032	0.000257	0.000038	-0.248895	0.298797	0.921288	-0.893045	-0.438965	-0.098897	0.374864	-0.847367	0.376095
11043		9.614903	-0.884407	4.030187	0.013866	0.010757	0.000108	1.000000	0.000173	0.000134	0.000001	-0.248741	0.298704	0.921360	-0.892880	-0.439365	-0.098610	0.375358	-0.847192	0.375995
11044		9.615061	-0.860809	3.999187	-0.003797	0.014211	0.003061	1.000000	-0.000047	0.000178	0.000038	-0.248618	0.298425	0.921483	-0.892893	-0.439335	-0.098625	0.375408	-0.847306	0.375688
11045		9.646296	-0.923818	3.993106	-0.030073	0.014745	0.007305	1.000000	-0.000376	0.000184	0.000091	-0.248659	0.298249	0.921529	-0.893113	-0.438809	-0.098973	0.374857	-0.847640	0.375484
11046		9.562708	-1.001791	3.995685	-0.036402	0.019685	0.005899	1.000000	-0.000455	0.000246	0.000074	-0.248756	0.298296	0.921488	-0.893385	-0.438175	-0.099327	0.374144	-0.847952	0.375491
11047		9.602439	-1.026482	3.937895	0.004137	0.010360	0.002864	1.000000	0.000052	0.000129	0.000036	-0.248664	0.298184	0.921549	-0.893280	-0.438422	-0.099177	0.374455	-0.847863	0.375382
11048		9.611153	-0.948328	3.935409	0.005554	0.026570	0.002400	1.000000	0.000069	0.000332	0.000030	-0.248639	0.298252	0.921534	-0.893178	-0.438667	-0.099015	0.374714	-0.847713	0.375462
11049		9.599502	-0.931832	4.000008	0.003994	0.016779	0.010402	1.000000	0.000050	0.000210	0.000130	-0.248729	0.298147	0.921543	-0.893025	-0.438980	-0.099008	0.375020	-0.847588	0.375440
11050		9.605998	-0.958222	4.057315	0.005803	0.013444	0.011014	1.000000	0.000073	0.000168	0.000138	-0.248764	0.297883	0.921619	-0.892856	-0.439325	-0.099002	0.375399	-0.847502	0.375255
11051		9.625296	-0.812168	4.007636	-0.000081	0.017692	0.009343	1.000000	-0.000001	0.000221	0.000117	-0.248860	0.297853	0.921603	-0.892746	-0.439547	-0.099011	0.375597	-0.847398	0.375292
11052		9.604173	-0.896509	3.915009	-0.010068	0.014191	0.009709	1.000000	-0.000126	0.000177	0.000121	-0.248943	0.297582	0.921668	-0.892762	-0.439461	-0.099245	0.375503	-0.847537	0.375071
11053		9.604017	-0.979778	3.885620	-0.000547	0.021717	0.003163	1.000000	-0.000007	0.000271	0.000040	-0.248872	0.297508	0.921711	-0.892709	-0.439590	-0.099151	0.375677	-0.847496	0.374990
11054		9.597616	-0.915908	3.973025	0.011880	0.011950	0.003701	1.000000	0.000148	0.000149	0.000046	-0.248840	0.297349	0.921771	-0.892547	-0.439945	-0.099031	0.376082	-0.847367	0.374874
11055		9.625737	-0.888875	4.016702	-0.004656	0.017730	0.003588	1.000000	-0.000058	0.000222	0.000045	-0.248803	0.297310	0.921794	-0.892525	-0.440002	-0.098987	0.376161	-0.847352	0.374830
11056		9.631105	-0.864545	3.974448	-0.002788	0.018863	0.001202	1.000000	-0.000035	0.000236	0.000015	-0.248771	0.297358	0.921787	-0.892508	-0.440051	-0.098914	0.376220	-0.847310	0.374867
11057		9.589091	-0.959396	3.916794	0.002164	0.017172	-0.003103	1.000000	0.000027	0.000215	-0.000039	-0.248621	0.297467	0.921792	-0.892455	-0.440218	-0.098647	0.376446	-0.847184	0.374924
11058		9.585967	-0.990519	3.914953	0.003967	0.011139	-0.000885	1.000000	0.000050	0.000139	-0.000011	-0.248449	0.297394	0.921862	-0.892370	-0.440443	-0.098414	0.376760	-0.847093	0.374813
11059		9.643312	-0.992512	3.966821	0.014996	0.012274	0.005060	1.000000	0.000187	0.000153	0.000063	-0.248378	0.297245	0.921929	-0.892136	-0.440971	-0.098175	0.377362	-0.846871	0.374711
11060		9.604230	-0.896107	4.012012	0.007637	0.008685	0.006930	1.000000	0.000095	0.000109	0.000087	-0.248330	0.296967	0.922032	-0.891969	-0.441326	-0.098091	0.377787	-0.846783	0.374480
11061		9.589920	-0.853024	3.915209	-0.006895	0.009570	0.001641	1.000000	-0.000086	0.000120	0.000021	-0.248283	0.296794	0.922100	-0.892023	-0.441199	-0.098177	0.377691	-0.846910	0.374289
11062		9.616221	-0.877415	3.942499	-0.006319	0.016065	0.000151	1.000000	-0.000079	0.000201	0.000002	-0.248231	0.296776	0.922120	-0.892053	-0.441142	-0.098159	0.377654	-0.846946	0.374245
11063		9.611632	-0.969850	3.978879	0.004668	0.022998	0.004357	1.000000	0.000058	0.000287	0.000054	-0.248322	0.296825	0.922080	-0.891949	-0.441359	-0.098130	0.377841	-0.846816	0.374352
11064		9.589133	-0.923297	3.981504	0.018405	0.018539	0.004072	1.000000	0.000230	0.000232	0.000051	-0.248337	0.296919	0.922046	-0.891678	-0.441972	-0.097832	0.378470	-0.846463	0.374514
11065		9.627186	-0.836809	4.009068	-0.006047	0.021301	0.002511	1.000000	-0.000076	0.000266	0.000031	-0.248314	0.296938	0.922045	-0.891676	-0.441983	-0.097798	0.378488	-0.846451	0.374523
11066		9.593044	-0.851320	3.936442	-0.024326	0.020380	0.003521	1.000000	-0.000304	0.000255	0.000044	-0.248330	0.296996	0.922023	-0.891823	-0.441656	-0.097933	0.378131	-0.846601	0.374545
11067		9.610726	-0.984561	3.862046	-0.002714	0.016325	-0.000260	1.000000	-0.000034	0.000204	-0.000003	-0.248247	0.297001	0.922043	-0.891800	-0.441729	-0.097819	0.378241	-0.846561	0.374523
11068		9.593841	-0.948864	3.948419	0.012287	0.018129	-0.001549	1.000000	0.000154	0.000227	-0.000019	-0.248063	0.296980	0.922100	-0.891629	-0.442152	-0.097462	0.378763	-0.846348	0.374478
11069		9.621856	-0.976266	3.986509	0.004234	0.025293	0.002979	1.000000	0.000053	0.000316	0.000037	-0.248100	0.297109	0.922048	-0.891512	-0.442418	-0.097324	0.379015	-0.846163	0.374641
11070		9.567649	-0.896035	3.972171	0.003047	0.019682	0.005847	1.000000	0.000038	0.000246	0.000073	-0.248100	0.297030	0.922074	-0.891389	-0.442685	-0.097240	0.379305	-0.846051	0.374599
11071		9.642937	-0.889721	3.943380	0.000862	0.013292	0.002499	1.000000	0.000011	0.000166	0.000031	-0.248035	0.296969	0.922110	-0.891294	-0.442905	-0.097107	0.379570	-0.845958	0.374543
11072		9.606341	-0.919691	3.919121	-0.005384	0.016242	0.001265	1.000000	-0.000067	0.000203	0.000016	-0.247975	0.296900	0.922149	-0.891299	-0.442901	-0.097081	0.379597	-0.845984	0.374455
11073		9.613469	-0.959247	3.922955	0.007386	0.026226	0.002806	1.000000	0.000092	0.000328	0.000035	-0.247997	0.297062	0.922091	-0.891140	-0.443267	-0.096870	0.379956	-0.845736	0.374653
11074		9.572886	-0.862590	3.971169	0.007896	0.022967	0.004368	1.000000	0.000099	0.000287	0.000055	-0.248022	0.297125	0.922064	-0.890972	-0.443641	-0.096701	0.380333	-0.845517	0.374763
11075		9.620210	-0.824101	3.958487	0.000832	0.018990	0.003933	1.000000	0.000010	0.000237	0.000049	-0.247998	0.297089	0.922082	-0.890883	-0.443840	-0.096604	0.380557	-0.845425	0.374743
11076		9.599288	-0.831262	3.884572	-0.006331	0.020231	-0.003313	1.000000	-0.000079	0.000253	-0.000041	-0.247898	0.297130	0.922096	-0.890944	-0.443734	-0.096538	0.380481	-0.845467	0.374727
11077		9.622821	-0.897096	3.936984	-0.003306	0.015674	-0.003769	1.000000	-0.000041	0.000196	-0.000047	-0.247719	0.297150	0.922137	-0.890945	-0.443775	-0.096337	0.380595	-0.845438	0.374676
11078		9.594962	-0.909278	3.918862	0.000043	0.013858	-0.003264	1.000000	0.000001	0.000173	-0.000041	-0.247492	0.297087	0.922218	-0.890906	-0.443907	-0.096087	0.380833	-0.845391	0.374540
11079		9.603123	-0.909510	3.942056	0.001355	0.015880	-0.000920	1.000000	0.000017	0.000199	-0.000012	-0.247356	0.297072	0.922260	-0.890844	-0.444074	-0.095888	0.381066	-0.845308	0.374489
11080		9.585095	-0.911938	3.914963	0.002812	0.016132	-0.001347	1.000000	0.000035	0.000202	-0.000017	-0.247183	0.296999	0.922330	-0.890769	-0.444272	-0.095665	0.381353	-0.845230	0.374374
11081		9.627614	-0.883257	3.967459	0.002950	0.024767	0.002193	1.000000	0.000037	0.000310	0.000027	-0.247224	0.297135	0.922275	-0.890668	-0.444503	-0.095543	0.381565	-0.845061	0.374540
11082		9.579947	-0.884271	3.883788	0.000134	0.026539	0.003288	1.000000	0.000002	0.000332	0.000041	-0.247295	0.297328	0.922194	-0.890578	-0.444705	-0.095438	0.381728	-0.844887	0.374767
11083		9.612359	-0.856144	3.917730	-0.010278	0.024378	0.002329	1.000000	-0.000128	0.000305	0.000029	-0.247378	0.297364	0.922160	-0.890630	-0.444575	-0.095560	0.381553	-0.844942	0.374819
11084		9.608883	-0.898872	3.970480	-0.010770	0.021761	0.005719	1.000000	-0.000135	0.000272	0.000071	-0.247499	0.297458	0.922097	-0.890637	-0.444540	-0.095651	0.381457	-0.844928	0.374951
11085		9.611285	-0.901206	3.939177	-0.010456	0.021354	0.003422	1.000000	-0.000131	0.000267	0.000043	-0.247554	0.297473	0.922078	-0.890671	-0.444454	-0.095736	0.381342	-0.844968	0.374977
11086		9.598992	-0.912767	3.860982	-0.007352	0.019016	0.006445	1.000000	-0.000092	0.000238	0.000081	-0.247603	0.297417	0.922082	-0.890635	-0.444518	-0.095779	0.381396	-0.844954	0.374954
11087		9.573924	-0.903114	3.925705	-0.009098	0.020797	0.007561	1.000000	-0.000114	0.000260	0.000095	-0.247722	0.297451	0.922039	-0.890610	-0.444548	-0.095867	0.381375	-0.844926	0.375038
11088		9.608599	-0.863365	3.952718	-0.006998	0.014479	0.004332	1.000000	-0.000087	0.000181	0.000054	-0.247666	0.297311	0.922100	-0.890571	-0.444633	-0.095835	0.381503	-0.844930	0.374897
11089		9.645062	-0.915288	3.974603	-0.008358	0.016505	0.005003	1.000000	-0.000104	0.000206	0.000063	-0.247673	0.297257	0.922115	-0.890551	-0.444670	-0.095849	0.381545	-0.844930	0.374856
11090		9.604165	-0.896154	3.887376	-0.002080	0.024176	0.002945	1.000000	-0.000026	0.000302	0.000037	-0.247709	0.297399	0.922060	-0.890480	-0.444835	-0.095749	0.381689	-0.844793	0.375017
11091		9.598271	-0.903190	3.914502	-0.005596	0.030379	0.000158	1.000000	-0.000070	0.000380	0.000002	-0.247791	0.297686	0.921945	-0.890479	-0.444847	-0.095698	0.381637	-0.844686	0.375312
11092		9.582956	-0.890001	3.932600	-0.000297	0.025580	0.001843	1.000000	-0.000004	0.000320	0.000023	-0.247810	0.297784	0.921909	-0.890407	-0.445012	-0.095600	0.381792	-0.844565	0.375427
11093		9.617116	-0.867441	3.950620	0.007430	0.018768	0.002893	1.000000	0.000093	0.000235	0.000036	-0.247820	0.297676	0.921941	-0.890273	-0.445295	-0.095531	0.382099	-0.844453	0.375365
11094		9.612845	-0.937422	3.930045	0.001967	0.027949	-0.001071	1.000000	0.000025	0.000349	-0.000013	-0.247867	0.297941	0.921842	-0.890213	-0.445444	-0.095394	0.382208	-0.844281	0.375642
11095		9.580635	-0.917639	3.956748	0.000474	0.030244	-0.002476	1.000000	0.000006	0.000378	-0.000031	-0.247851	0.298208	0.921760	-0.890162	-0.445589	-0.095198	0.382337	-0.844111	0.375893
11096		9.608457	-0.972416	3.945998	0.010667	0.018862	-0.000240	1.000000	0.000133	0.000236	-0.000003	-0.247786	0.298154	0.921795	-0.890012	-0.445929	-0.095007	0.382728	-0.843950	0.375856
11097		9.594600	-0.880978	3.912007	0.015519	0.019427	0.006536	1.000000	0.000194	0.000243	0.000082	-0.247886	0.298125	0.921778	-0.889761	-0.446456	-0.094881	0.383247	-0.843681	0.375930
11098		9.639240	-0.866362	3.935290	-0.001926	0.032716	0.006377	1.000000	-0.000024	0.000409	0.000080	-0.248060	0.298339	0.921662	-0.889656	-0.446670	-0.094860	0.383378	-0.843493	0.376220
11099		9.572950	-0.884544	4.010752	-0.002676	0.030737	0.002434	1.000000	-0.000033	0.000384	0.000030	-0.248149	0.298530	0.921576	-0.889599	-0.446795	-0.094806	0.383453	-0.843359	0.376444
11100		9.598365	-0.926744	3.938208	0.019277	0.010611	0.003594	1.000000	0.000241	0.000133	0.000045	-0.248122	0.298334	0.921647	-0.889337	-0.447356	-0.094616	0.384077	-0.843131	0.376318
11101		9.599122	-0.864734	3.929584	0.012352	0.024119	0.008061	1.000000	0.000154	0.000301	0.000101	-0.248242	0.298371	0.921602	-0.889082	-0.447893	-0.094475	0.384591	-0.842832	0.376462
11102		9.625719	-0.846798	3.937915	-0.003957	0.033378	0.004894	1.000000	-0.000049	0.000417	0.000061	-0.248426	0.298600	0.921478	-0.889030	-0.447987	-0.094510	0.384590	-0.842701	0.376756
11103		9.598117	-0.904716	3.886690	0.018225	0.025188	0.003183	1.000000	0.000228	0.000315	0.000040	-0.248447	0.298709	0.921437	-0.888747	-0.448614	-0.094202	0.385230	-0.842329	0.376934
11104		9.614467	-0.866956	3.952959	0.014525	0.021074	0.001670	1.000000	0.000182	0.000263	0.000021	-0.248470	0.298791	0.921405	-0.888538	-0.449075	-0.093982	0.385699	-0.842054	0.377068
11105		9.591784	-0.885830	3.977363	0.006749	0.027218	-0.001284	1.000000	0.000084	0.000340	-0.000016	-0.248505	0.298894	0.921362	-0.888434	-0.449303	-0.093868	0.385914	-0.841896	0.377202
11106		9.624997	-0.949184	3.892912	0.010265	0.034056	-0.000477	1.000000	0.000128	0.000426	-0.000006	-0.248499	0.299207	0.921262	-0.888235	-0.449770	-0.093515	0.386376	-0.841536	0.377533
11107		9.579492	-0.859343	3.937707	0.014821	0.019018	0.000964	1.000000	0.000185	0.000238	0.000012	-0.248452	0.299158	0.921290	-0.888015	-0.450254	-0.093274	0.386911	-0.841294	0.377524
11108		9.627835	-0.902902	3.961198	0.014862	0.023755	0.002576	1.000000	0.000186	0.000297	0.000032	-0.248504	0.299236	0.921251	-0.887784	-0.450754	-0.093065	0.387409	-0.840999	0.377671
11109		9.618352	-0.848100	3.987893	0.019678	0.031034	0.004101	1.000000	0.000246	0.000388	0.000051	-0.248621	0.299374	0.921175	-0.887499	-0.451360	-0.092843	0.387987	-0.840624	0.377911
11110		9.596942	-0.827063	3.966003	-0.000827	0.027948	0.001407	1.000000	-0.000010	0.000349	0.000018	-0.248656	0.299587	0.921096	-0.887412	-0.451562	-0.092692	0.388163	-0.840440	0.378141
11111		9.585205	-0.903647	3.910695	-0.001128	0.022684	0.002296	1.000000	-0.000014	0.000284	0.000029	-0.248721	0.299719	0.921035	-0.887338	-0.451721	-0.092624	0.388290	-0.840307	0.378305
11112		9.617859	-0.949642	3.927765	0.003853	0.029761	0.002680	1.000000	0.000048	0.000372	0.000034	-0.248801	0.299892	0.920958	-0.887197	-0.452027	-0.092486	0.388562	-0.840081	0.378528
11113		9.589034	-0.911795	4.020951	0.010508	0.031793	0.005166	1.000000	0.000131	0.000397	0.000065	-0.248944	0.300157	0.920832	-0.886976	-0.452499	-0.092294	0.388973	-0.839732	0.378879
11114		9.640460	-0.837187	3.972322	0.005571	0.027886	0.004768	1.000000	0.000070	0.000349	0.000060	-0.249089	0.300346	0.920732	-0.886818	-0.452827	-0.092201	0.389240	-0.839488	0.379146
11115		9.594649	-0.845364	3.964913	-0.000851	0.027828	0.004557	1.000000	-0.000011	0.000348	0.000057	-0.249275	0.300533	0.920620	-0.886740	-0.452975	-0.092229	0.389300	-0.839341	0.379410
11116		9.627225	-0.883262	3.930262	-0.004264	0.033073	0.001917	1.000000	-0.000053	0.000413	0.000024	-0.249416	0.300818	0.920489	-0.886700	-0.453059	-0.092199	0.389301	-0.839193	0.379736
11117		9.584334	-0.893710	3.955497	0.001175	0.028097	0.002541	1.000000	0.000015	0.000351	0.000032	-0.249485	0.300951	0.920427	-0.886593	-0.453287	-0.092103	0.389499	-0.839023	0.379909
11118		9.606668	-0.882701	3.961263	0.004132	0.032749	-0.001729	1.000000	0.000052	0.000409	-0.000022	-0.249529	0.301301	0.920301	-0.886488	-0.453539	-0.091875	0.389710	-0.838761	0.380271
11119		9.596839	-0.866480	3.967876	0.008660	0.030669	0.000928	1.000000	0.000108	0.000383	0.000012	-0.249575	0.301462	0.920235	-0.886315	-0.453918	-0.091675	0.390075	-0.838498	0.380477
11120		9.575650	-0.891651	3.976935	0.011179	0.020552	-0.002416	1.000000	0.000140	0.000257	-0.000030	-0.249462	0.301466	0.920265	-0.886146	-0.454306	-0.091389	0.390531	-0.838287	0.380475
11121		9.645090	-0.865680	3.975331	0.009622	0.029380	-0.002724	1.000000	0.000120	0.000367	-0.000034	-0.249401	0.301737	0.920192	-0.885970	-0.454723	-0.091018	0.390969	-0.837963	0.380738
11122		9.605874	-0.867803	3.979979	0.008944	0.031151	-0.001619	1.000000	0.000112	0.000389	-0.000020	-0.249439	0.302051	0.920079	-0.885816	-0.455076	-0.090754	0.391293	-0.837658	0.381075
11123		9.644129	-0.930903	3.951157	0.023646	0.020377	-0.001559	1.000000	0.000296	0.000255	-0.000019	-0.249384	0.302079	0.920085	-0.885528	-0.455706	-0.090402	0.391979	-0.837305	0.381145
11124		9.593924	-0.869006	3.957221	0.017481	0.026465	-0.002947	1.000000	0.000219	0.000331	-0.000037	-0.249339	0.302241	0.920044	-0.885305	-0.456207	-0.090058	0.392511	-0.836974	0.381326
11125		9.626882	-0.912349	3.998837	-0.009575	0.027884	0.005280	1.000000	-0.000120	0.000349	0.000066	-0.249483	0.302323	0.919978	-0.885288	-0.456221	-0.090153	0.392458	-0.836937	0.381462
11126		9.598324	-0.907785	3.992668	0.009622	0.020683	0.009398	1.000000	0.000120	0.000259	0.000117	-0.249646	0.302281	0.919947	-0.885053	-0.456685	-0.090117	0.392885	-0.836699	0.381544
11127		9.609218	-0.875766	3.955277	0.002727	0.026365	0.005689	1.000000	0.000034	0.000330	0.000071	-0.249795	0.302513	0.919830	-0.884910	-0.456980	-0.090021	0.393111	-0.836454	0.381848
11128		9.630582	-0.895788	3.978968	0.005490	0.027047	0.006001	1.000000	0.000069	0.000338	0.000075	-0.249923	0.302647	0.919752	-0.884728	-0.457353	-0.089912	0.393440	-0.836201	0.382063
11129		9.597990	-0.917466	3.959460	0.008665	0.022345	0.004527	1.000000	0.000108	0.000279	0.000057	-0.250014	0.302678	0.919717	-0.884543	-0.457730	-0.089814	0.393797	-0.835984	0.382170
11130		9.603599	-0.882331	3.982525	0.003630	0.029074	0.004988	1.000000	0.000045	0.000363	0.000062	-0.250120	0.302877	0.919623	-0.884376	-0.458081	-0.089665	0.394104	-0.835719	0.382433
11131		9.616510	-0.956608	3.979947	0.007072	0.030500	0.002342	1.000000	0.000088	0.000381	0.000029	-0.250255	0.303080	0.919519	-0.884221	-0.458402	-0.089555	0.394367	-0.835470	0.382707
11132		9.592916	-0.913631	3.935393	0.015720	0.024012	0.001540	1.000000	0.000196	0.000300	0.000019	-0.250254	0.303126	0.919504	-0.883965	-0.458949	-0.089284	0.394941	-0.835153	0.382807
11133		9.604439	-0.920001	4.002160	0.016960	0.025354	0.002022	1.000000	0.000212	0.000317	0.000025	-0.250312	0.303290	0.919434	-0.883709	-0.459493	-0.089015	0.395477	-0.834794	0.383036
11134		9.630451	-0.863175	4.008078	0.022023	0.031455	0.002600	1.000000	0.000275	0.000393	0.000033	-0.250455	0.303475	0.919334	-0.883400	-0.460135	-0.088774	0.396077	-0.834374	0.383333
11135		9.612244	-0.844392	4.018059	0.006973	0.027228	0.005512	1.000000	0.000087	0.000340	0.000069	-0.250610	0.303625	0.919242	-0.883223	-0.460490	-0.088691	0.396373	-0.834123	0.383573
11136		9.622267	-0.899833	3.969099	-0.001759	0.025831	0.004739	1.000000	-0.000022	0.000323	0.000059	-0.250714	0.303706	0.919187	-0.883122	-0.460689	-0.088663	0.396532	-0.833984	0.383711
11137		9.596256	-0.877907	4.005494	0.003089	0.024905	0.006749	1.000000	0.000039	0.000311	0.000084	-0.250862	0.303842	0.919102	-0.882969	-0.460994	-0.088602	0.396780	-0.833765	0.383929
11138		9.629511	-0.896203	3.981239	0.012795	0.029075	0.003624	1.000000	0.000160	0.000363	0.000045	-0.250951	0.304063	0.919005	-0.882727	-0.461504	-0.088352	0.397260	-0.833402	0.384220
11139		9.602367	-0.838743	3.991240	0.006821	0.025847	0.005026	1.000000	0.000085	0.000323	0.000063	-0.251040	0.304131	0.918958	-0.882534	-0.461899	-0.088223	0.397635	-0.833159	0.384361
11140		9.623916	-0.856683	4.038767	-0.001922	0.026001	0.005832	1.000000	-0.000024	0.000325	0.000073	-0.251107	0.304051	0.918966	-0.882402	-0.462154	-0.088206	0.397884	-0.833047	0.384345
11141		9.623685	-0.901933	4.032922	-0.012022	0.028160	0.007247	1.000000	-0.000150	0.000352	0.000091	-0.251309	0.304139	0.918881	-0.882396	-0.462134	-0.088369	0.397769	-0.833026	0.384510
11142		9.605519	-0.928349	3.973552	0.003894	0.025338	0.005818	1.000000	0.000049	0.000317	0.000073	-0.251448	0.304235	0.918812	-0.882246	-0.462429	-0.088323	0.398014	-0.832827	0.384687
11143		9.598598	-0.896767	4.020879	0.005818	0.024902	0.005202	1.000000	0.000073	0.000311	0.000065	-0.251588	0.304410	0.918715	-0.882088	-0.462748	-0.088229	0.398276	-0.832585	0.384939
11144		9.648313	-0.827126	4.015579	-0.003645	0.020599	0.003963	1.000000	-0.000046	0.000257	0.000050	-0.251691	0.304395	0.918692	-0.882041	-0.462825	-0.088299	0.398316	-0.832548	0.384978
11145		9.610793	-0.904321	4.024397	-0.000421	0.027177	0.001944	1.000000	-0.000005	0.000340	0.000024	-0.251695	0.304502	0.918656	-0.881918	-0.463092	-0.088130	0.398586	-0.832361	0.385104
11146		9.617943	-0.858471	4.018551	0.002233	0.025605	0.002059	1.000000	0.000028	0.000320	0.000026	-0.251822	0.304646	0.918573	-0.881841	-0.463241	-0.088118	0.398676	-0.832225	0.385304
11147		9.618328	-0.944082	3.967454	-0.015233	0.021532	0.009187	1.000000	-0.000190	0.000269	0.000115	-0.252017	0.304618	0.918529	-0.881865	-0.463148	-0.088360	0.398499	-0.832287	0.385354
11148		9.625024	-0.982247	4.020357	-0.005134	0.029000	0.008802	1.000000	-0.000064	0.000362	0.000110	-0.252284	0.304771	0.918405	-0.881798	-0.463249	-0.088500	0.398478	-0.832175	0.385617
11149		9.610344	-0.903989	4.015547	0.004473	0.022807	0.006060	1.000000	0.000056	0.000285	0.000076	-0.252426	0.304823	0.918349	-0.881652	-0.463532	-0.088481	0.398713	-0.831998	0.385755
11150		9.594693	-0.875795	3.994306	0.012589	0.019451	0.006887	1.000000	0.000157	0.000243	0.000086	-0.252544	0.304774	0.918332	-0.881410	-0.464007	-0.088396	0.399172	-0.831751	0.385813
11151		9.611765	-0.886792	4.000335	0.007392	0.022300	0.008686	1.000000	0.000092	0.000279	0.000109	-0.252693	0.304693	0.918318	-0.881188	-0.464432	-0.088380	0.399567	-0.831544	0.385851
11152		9.613741	-0.878314	4.032527	-0.004502	0.020010	0.007994	1.000000	-0.000056	0.000250	0.000100	-0.252804	0.304598	0.918319	-0.881085	-0.464614	-0.088446	0.399723	-0.831477	0.385833
11153		9.613163	-0.875877	3.936737	0.012348	0.018021	0.009628	1.000000	0.000154	0.000225	0.000120	-0.252979	0.304448	0.918321	-0.880830	-0.465095	-0.088459	0.400175	-0.831263	0.385826
11154		9.659972	-0.822453	4.036509	0.021003	0.018112	0.006776	1.000000	0.000263	0.000226	0.000085	-0.253048	0.304409	0.918315	-0.880497	-0.465769	-0.088231	0.400864	-0.830900	0.385893
11155		9.613382	-0.859879	4.045484	-0.005187	0.026155	0.003501	1.000000	-0.000065	0.000327	0.000044	-0.253110	0.304524	0.918259	-0.880431	-0.465905	-0.088174	0.400971	-0.830781	0.386038
11156		9.606632	-0.897490	3.942370	0.000754	0.021814	0.007696	1.000000	0.000009	0.000273	0.000096	-0.253228	0.304535	0.918223	-0.880285	-0.466185	-0.088152	0.401217	-0.830620	0.386128
11157		9.591196	-0.863855	3.992565	0.000483	0.022277	0.006756	1.000000	0.000006	0.000278	0.000084	-0.253381	0.304532	0.918182	-0.880164	-0.466404	-0.088198	0.401385	-0.830498	0.386216
11158		9.636022	-0.888598	3.995872	-0.004293	0.022293	0.004947	1.000000	-0.000054	0.000279	0.000062	-0.253435	0.304533	0.918167	-0.880081	-0.466565	-0.088174	0.401532	-0.830408	0.386258
11159		9.623380	-0.918748	3.999922	0.006821	0.022551	0.004953	1.000000	0.000085	0.000282	0.000062	-0.253530	0.304529	0.918142	-0.879903	-0.466914	-0.088105	0.401863	-0.830213	0.386332
11160		9.606031	-0.922512	3.973832	-0.001000	0.023895	0.003445	1.000000	-0.000013	0.000299	0.000043	-0.253644	0.304586	0.918092	-0.879827	-0.467054	-0.088123	0.401958	-0.830113	0.386448
11161		9.598638	-0.857609	3.993023	-0.001584	0.019470	0.010574	1.000000	-0.000020	0.000243	0.000132	-0.253861	0.304584	0.918032	-0.879729	-0.467212	-0.088258	0.402034	-0.830025	0.386558
11162		9.624871	-0.929109	3.988118	-0.007765	0.022388	0.009106	1.000000	-0.000097	0.000280	0.000114	-0.254002	0.304616	0.917982	-0.879663	-0.467324	-0.088327	0.402089	-0.829950	0.386661
11163		9.602747	-0.897370	4.050761	0.006368	0.024721	0.006706	1.000000	0.000080	0.000309	0.000084	-0.254140	0.304572	0.917959	-0.879460	-0.467710	-0.088299	0.402445	-0.829749	0.386723
11164		9.617342	-0.889130	4.011322	0.005789	0.019109	0.007001	1.000000	0.000072	0.000239	0.000088	-0.254182	0.304403	0.918003	-0.879235	-0.468151	-0.088212	0.402912	-0.829562	0.386637
11165		9.607385	-0.924263	4.022316	-0.001401	0.013685	0.008147	1.000000	-0.000018	0.000171	0.000102	-0.254262	0.304217	0.918043	-0.879126	-0.468341	-0.088286	0.403099	-0.829523	0.386526
11166		9.637335	-0.917955	3.966065	-0.005264	0.023852	0.003216	1.000000	-0.000066	0.000298	0.000040	-0.254279	0.304329	0.918001	-0.879062	-0.468480	-0.088187	0.403227	-0.829404	0.386649
11167		9.604506	-0.882099	3.976685	0.002755	0.026327	0.003293	1.000000	0.000034	0.000329	0.000041	-0.254338	0.304391	0.917964	-0.878908	-0.468789	-0.088070	0.403524	-0.829206	0.386763
11168		9.593633	-0.894565	4.023420	0.009319	0.019599	0.004621	1.000000	0.000116	0.000245	0.000058	-0.254372	0.304358	0.917966	-0.878696	-0.469215	-0.087919	0.403965	-0.828977	0.386793
11169		9.640784	-0.907784	3.997661	0.002443	0.020248	0.004521	1.000000	0.000031	0.000253	0.000057	-0.254398	0.304279	0.917985	-0.878539	-0.469526	-0.087836	0.404291	-0.828830	0.386768
11170		9.606569	-0.889703	3.964534	-0.004660	0.020121	0.008993	1.000000	-0.000058	0.000252	0.000112	-0.254579	0.304221	0.917954	-0.878468	-0.469629	-0.087988	0.404330	-0.828793	0.386806
11171		9.618418	-0.853380	3.998503	-0.004345	0.025832	0.013000	1.000000	-0.000054	0.000323	0.000162	-0.254887	0.304232	0.917865	-0.878360	-0.469791	-0.088202	0.404371	-0.828698	0.386968
11172		9.598924	-0.881972	4.062200	-0.002941	0.019595	0.002445	1.000000	-0.000037	0.000245	0.000031	-0.254877	0.304248	0.917862	-0.878296	-0.469927	-0.088122	0.404517	-0.828614	0.386993
11173		9.640526	-0.924827	3.943061	0.000175	0.021393	0.002091	1.000000	0.000002	0.000267	0.000026	-0.254897	0.304308	0.917837	-0.878209	-0.470106	-0.088029	0.404692	-0.828491	0.387075
11174		9.614238	-0.902714	3.978435	-0.002808	0.025493	0.007572	1.000000	-0.000035	0.000319	0.000095	-0.255071	0.304359	0.917771	-0.878109	-0.470281	-0.088090	0.404800	-0.828373	0.387215
11175		9.602826	-0.900237	4.011776	-0.010655	0.024342	0.007903	1.000000	-0.000133	0.000304	0.000099	-0.255241	0.304366	0.917722	-0.878087	-0.470295	-0.088242	0.404742	-0.828363	0.387298
11176		9.602975	-0.925882	4.014829	0.007827	0.016817	0.006872	1.000000	0.000098	0.000210	0.000086	-0.255348	0.304308	0.917711	-0.877920	-0.470610	-0.088224	0.405036	-0.828205	0.387328
11177		9.601093	-0.909137	4.005532	0.010070	0.016890	0.003775	1.000000	0.000126	0.000211	0.000047	-0.255358	0.304225	0.917736	-0.877723	-0.471001	-0.088090	0.405455	-0.828013	0.387299
11178		9.628750	-0.876272	3.975618	-0.001180	0.023010	0.007899	1.000000	-0.000015	0.000288	0.000099	-0.255507	0.304181	0.917709	-0.877595	-0.471229	-0.088147	0.405638	-0.827900	0.387350
11179		9.628813	-0.903818	3.955720	-0.000285	0.025072	0.005378	1.000000	-0.000004	0.000313	0.000067	-0.255596	0.304278	0.917652	-0.877478	-0.471461	-0.088077	0.405837	-0.827731	0.387501
11180		9.606691	-0.873622	3.994069	-0.004360	0.019947	0.004602	1.000000	-0.000055	0.000249	0.000058	-0.255621	0.304227	0.917662	-0.877395	-0.471619	-0.088051	0.406000	-0.827660	0.387483
11181		9.621658	-0.915056	4.018981	-0.004550	0.023531	0.003594	1.000000	-0.000057	0.000294	0.000045	-0.255721	0.304262	0.917623	-0.877355	-0.471684	-0.088101	0.406022	-0.827610	0.387566
11182		9.615515	-0.944854	3.987607	0.003232	0.026805	-0.002499	1.000000	0.000040	0.000335	-0.000031	-0.255691	0.304479	0.917559	-0.877268	-0.471888	-0.087874	0.406229	-0.827414	0.387768
11183		9.573175	-0.906271	3.921384	0.006828	0.019625	-0.000340	1.000000	0.000085	0.000245	-0.000004	-0.255648	0.304490	0.917568	-0.877130	-0.472180	-0.087691	0.406556	-0.827244	0.387789
11184		9.651150	-0.896061	4.002522	0.002828	0.021297	0.003757	1.000000	0.000035	0.000266	0.000047	-0.255664	0.304525	0.917552	-0.876993	-0.472459	-0.087559	0.406841	-0.827072	0.387856
11185		9.610595	-0.949337	4.012852	-0.009826	0.030012	0.001092	1.000000	-0.000123	0.000375	0.000014	-0.255760	0.304634	0.917488	-0.876994	-0.472449	-0.087605	0.406779	-0.827037	0.387995
11186		9.603902	-0.906191	3.975077	0.017126	0.020903	0.002187	1.000000	0.000214	0.000261	0.000027	-0.255733	0.304651	0.917490	-0.876710	-0.473031	-0.087297	0.407406	-0.826698	0.388060
11187		9.596783	-0.872337	4.021276	0.012380	0.019410	-0.001219	1.000000	0.000155	0.000243	-0.000015	-0.255640	0.304701	0.917499	-0.876518	-0.473444	-0.086991	0.407878	-0.826443	0.388108
11188		9.639157	-0.854467	4.014138	-0.012208	0.028936	-0.001552	1.000000	-0.000153	0.000362	-0.000019	-0.255663	0.304890	0.917430	-0.876573	-0.473345	-0.086971	0.407744	-0.826430	0.388275
11189		9.628716	-0.908380	4.016403	-0.011738	0.019971	0.000966	1.000000	-0.000147	0.000250	0.000012	-0.255615	0.304878	0.917448	-0.876592	-0.473316	-0.086944	0.407735	-0.826451	0.388240
11190		9.620699	-0.912927	4.008840	0.003892	0.015734	0.002548	1.000000	0.000049	0.000197	0.000032	-0.255575	0.304747	0.917502	-0.876449	-0.473601	-0.086834	0.408067	-0.826336	0.388136
11191		9.636308	-0.904164	3.969058	0.001223	0.023709	0.003349	1.000000	0.000015	0.000296	0.000042	-0.255635	0.304788	0.917472	-0.876329	-0.473836	-0.086761	0.408288	-0.826186	0.388224
11192		9.565715	-0.903183	3.969578	-0.004250	0.024866	0.000748	1.000000	-0.000053	0.000311	0.000009	-0.255678	0.304918	0.917417	-0.876311	-0.473875	-0.086722	0.408298	-0.826116	0.388362
11193		9.627394	-0.894084	3.986520	0.005462	0.014167	0.002660	1.000000	0.000068	0.000177	0.000033	-0.255630	0.304786	0.917474	-0.876163	-0.474173	-0.086599	0.408647	-0.825994	0.388255
11194		9.635403	-0.863153	4.016527	-0.000321	0.023730	0.001652	1.000000	-0.000004	0.000297	0.000021	-0.255647	0.304898	0.917432	-0.876085	-0.474337	-0.086485	0.408803	-0.825858	0.388380
11195		9.595303	-0.901193	3.989384	-0.007826	0.028618	0.000667	1.000000	-0.000098	0.000358	0.000008	-0.255705	0.305090	0.917352	-0.876087	-0.474341	-0.086448	0.408763	-0.825785	0.388576
11196		9.608225	-0.903201	3.979126	-0.001096	0.016834	0.001553	1.000000	-0.000014	0.000210	0.000019	-0.255656	0.305000	0.917396	-0.876002	-0.474512	-0.086363	0.408975	-0.825720	0.388492
11197		9.622569	-0.871150	3.997586	-0.007279	0.026155	0.000973	1.000000	-0.000091	0.000327	0.000012	-0.255705	0.305067	0.917360	-0.875981	-0.474551	-0.086359	0.408988	-0.825673	0.388578
11198		9.628116	-0.889997	4.037136	-0.007357	0.023038	0.001044	1.000000	-0.000092	0.000288	0.000013	-0.255729	0.305087	0.917347	-0.875971	-0.474569	-0.086364	0.408996	-0.825655	0.388608
11199		9.626872	-0.878144	3.981332	0.000471	0.022300	0.004445	1.000000	0.000006	0.000279	0.000056	-0.255796	0.305050	0.917340	-0.875840	-0.474818	-0.086329	0.409235	-0.825525	0.388632
11200		9.611041	-0.846428	4.007392	-0.014370	0.022982	0.002248	1.000000	-0.000180	0.000287	0.000028	-0.255864	0.305097	0.917305	-0.875914	-0.474659	-0.086447	0.409032	-0.825600	0.388687
11201		9.611161	-0.870987	4.010788	0.003377	0.021514	0.000051	1.000000	0.000042	0.000269	0.000001	-0.255813	0.305186	0.917290	-0.875811	-0.474886	-0.086249	0.409286	-0.825436	0.388767
11202		9.616859	-0.851281	4.046405	0.016481	0.018916	-0.001678	1.000000	0.000206	0.000236	-0.000021	-0.255737	0.305199	0.917307	-0.875586	-0.475354	-0.085950	0.409814	-0.825162	0.388794
11203		9.612038	-0.828890	3.973409	-0.009296	0.022815	-0.000238	1.000000	-0.000116	0.000285	-0.000003	-0.255688	0.305319	0.917281	-0.875606	-0.475335	-0.085855	0.409803	-0.825128	0.388877
11204		9.631328	-0.881347	3.991452	-0.011020	0.020285	0.003155	1.000000	-0.000138	0.000254	0.000039	-0.255699	0.305323	0.917276	-0.875618	-0.475309	-0.085876	0.409770	-0.825142	0.388882
11205		9.607978	-0.885310	3.999570	-0.008407	0.018109	0.001530	1.000000	-0.000105	0.000226	0.000019	-0.255696	0.305315	0.917280	-0.875652	-0.475240	-0.085909	0.409699	-0.825184	0.388867
11206		9.602523	-0.913206	3.990005	-0.000957	0.016871	-0.001676	1.000000	-0.000012	0.000211	-0.000021	-0.255609	0.305327	0.917300	-0.875630	-0.475301	-0.085792	0.409799	-0.825145	0.388845
11207		9.622848	-0.948982	3.970346	0.005787	0.021022	0.001090	1.000000	0.000072	0.000263	0.000014	-0.255606	0.305326	0.917302	-0.875488	-0.475588	-0.085654	0.410106	-0.824980	0.388872
11208		9.601833	-0.904801	3.947004	-0.001425	0.021166	0.003414	1.000000	-0.000018	0.000265	0.000043	-0.255661	0.305274	0.917303	-0.875391	-0.475769	-0.085646	0.410279	-0.824895	0.388869
11209		9.619017	-0.877729	4.029579	-0.002748	0.016742	0.003007	1.000000	-0.000034	0.000209	0.000038	-0.255620	0.305230	0.917329	-0.875327	-0.475900	-0.085566	0.410440	-0.824835	0.388826
11210		9.628171	-0.887532	4.015557	0.005257	0.023448	0.000749	1.000000	0.000066	0.000293	0.000009	-0.255614	0.305310	0.917304	-0.875190	-0.476185	-0.085389	0.410736	-0.824642	0.388924
11211		9.599542	-0.861477	3.961844	0.001770	0.020534	0.001772	1.000000	0.000022	0.000257	0.000022	-0.255583	0.305298	0.917317	-0.875063	-0.476444	-0.085241	0.411026	-0.824496	0.388926
11212		9.614054	-0.883229	3.996587	-0.006556	0.016689	0.004373	1.000000	-0.000082	0.000209	0.000055	-0.255616	0.305257	0.917322	-0.875070	-0.476419	-0.085304	0.410989	-0.824526	0.388901
11213		9.599952	-0.892368	3.977344	-0.011092	0.022026	0.002576	1.000000	-0.000139	0.000275	0.000032	-0.255660	0.305160	0.917341	-0.875051	-0.476441	-0.085382	0.411004	-0.824549	0.388838
11214		9.617778	-0.850109	4.022822	0.005308	0.017658	0.001598	1.000000	0.000066	0.000221	0.000020	-0.255614	0.305111	0.917370	-0.874909	-0.476730	-0.085225	0.411335	-0.824400	0.388803
11215		9.619409	-0.894910	3.991432	0.004349	0.019241	-0.000108	1.000000	0.000054	0.000241	-0.000001	-0.255557	0.305072	0.917400	-0.874771	-0.477013	-0.085056	0.411663	-0.824251	0.388772
11216		9.597845	-0.920857	3.941920	-0.001432	0.020510	0.001565	1.000000	-0.000018	0.000256	0.000020	-0.255554	0.305063	0.917404	-0.874696	-0.477163	-0.084987	0.411824	-0.824168	0.388778
11217		9.622043	-0.856786	3.985631	0.008504	0.017030	-0.000032	1.000000	0.000106	0.000213	-0.000000	-0.255497	0.304990	0.917444	-0.874536	-0.477487	-0.084814	0.412200	-0.824007	0.388721
11218		9.623637	-0.845118	4.017442	0.010247	0.019541	-0.003438	1.000000	0.000128	0.000244	-0.000043	-0.255378	0.305009	0.917470	-0.874372	-0.477838	-0.084526	0.412621	-0.823796	0.388721
11219		9.614342	-0.828157	3.965676	-0.002528	0.029005	-0.003356	1.000000	-0.000032	0.000363	-0.000042	-0.255363	0.305247	0.917395	-0.874354	-0.477899	-0.084370	0.412669	-0.823673	0.388932
11220		9.609235	-0.840338	3.977925	-0.005198	0.031429	-0.003832	1.000000	-0.000065	0.000393	-0.000048	-0.255346	0.305587	0.917287	-0.874377	-0.477887	-0.084197	0.412630	-0.823554	0.389225
11221		9.610545	-0.851495	3.978909	0.001041	0.034357	0.002825	1.000000	0.000013	0.000429	0.000035	-0.255512	0.305802	0.917169	-0.874241	-0.478146	-0.084130	0.412814	-0.823323	0.389517
11222		9.622465	-0.853697	3.971806	-0.007557	0.035227	0.002037	1.000000	-0.000094	0.000440	0.000025	-0.255649	0.306103	0.917030	-0.874223	-0.478185	-0.084098	0.412768	-0.823189	0.389850
11223		9.620279	-0.876602	4.002629	-0.006630	0.039383	0.002851	1.000000	-0.000083	0.000492	0.000036	-0.255846	0.306511	0.916839	-0.874205	-0.478223	-0.084072	0.412685	-0.823015	0.390305
11224		9.600253	-0.857385	3.981063	-0.010332	0.036043	0.003174	1.000000	-0.000129	0.000451	0.000040	-0.256007	0.306917	0.916658	-0.874258	-0.478126	-0.084078	0.412473	-0.822920	0.390728
11225		9.629004	-0.864447	3.989944	-0.014005	0.026957	0.004382	1.000000	-0.000175	0.000337	0.000055	-0.256104	0.306989	0.916607	-0.874272	-0.478086	-0.084155	0.412382	-0.822917	0.390832
11226		9.609915	-0.826276	4.031705	0.007387	0.022105	0.006326	1.000000	0.000092	0.000276	0.000079	-0.256193	0.306965	0.916590	-0.874068	-0.478474	-0.084068	0.412758	-0.822700	0.390890
11227		9.595791	-0.817595	4.000371	0.003584	0.026915	0.007056	1.000000	0.000045	0.000336	0.000088	-0.256345	0.307017	0.916530	-0.873887	-0.478812	-0.084027	0.413049	-0.822484	0.391039
11228		9.621382	-0.832731	4.003674	-0.020703	0.017064	0.002442	1.000000	-0.000259	0.000213	0.000031	-0.256342	0.306930	0.916560	-0.874022	-0.478536	-0.084197	0.412765	-0.822677	0.390932
11229		9.640343	-0.886461	4.078098	-0.009302	0.027163	0.004172	1.000000	-0.000116	0.000340	0.000052	-0.256457	0.307066	0.916482	-0.874037	-0.478497	-0.084260	0.412660	-0.822649	0.391101
11230		9.646361	-0.837626	3.952138	-0.008576	0.027264	0.008541	1.000000	-0.000107	0.000341	0.000107	-0.256662	0.307115	0.916409	-0.873989	-0.478560	-0.084402	0.412635	-0.822594	0.391244
11231		9.582031	-0.854550	3.953032	-0.019901	0.025977	0.005794	1.000000	-0.000249	0.000325	0.000072	-0.256780	0.307191	0.916351	-0.874080	-0.478364	-0.084571	0.412369	-0.822680	0.391343
11232		9.621631	-0.923111	3.982189	-0.011772	0.024515	0.003165	1.000000	-0.000147	0.000306	0.000040	-0.256856	0.307274	0.916301	-0.874131	-0.478255	-0.084656	0.412213	-0.822712	0.391441
11233		9.645075	-0.860978	4.026817	0.003275	0.018510	0.007088	1.000000	0.000041	0.000231	0.000089	-0.256938	0.307232	0.916292	-0.874013	-0.478471	-0.084652	0.412412	-0.822602	0.391462
11234		9.608446	-0.833584	4.032151	-0.009055	0.025433	0.001466	1.000000	-0.000113	0.000318	0.000018	-0.256964	0.307296	0.916263	-0.873998	-0.478503	-0.084631	0.412428	-0.822559	0.391535
11235		9.625395	-0.807542	3.979967	0.002225	0.020016	-0.000573	1.000000	0.000028	0.000250	-0.000007	-0.256908	0.307343	0.916263	-0.873931	-0.478650	-0.084485	0.412604	-0.822456	0.391566
11236		9.622177	-0.895833	4.028333	0.004756	0.018729	0.006710	1.000000	0.000059	0.000234	0.000084	-0.256961	0.307230	0.916286	-0.873738	-0.479016	-0.084416	0.412981	-0.822286	0.391527
11237		9.597457	-0.841320	4.010561	0.003420	0.014339	0.006321	1.000000	0.000043	0.000179	0.000079	-0.257011	0.307024	0.916341	-0.873593	-0.479275	-0.084439	0.413255	-0.822211	0.391393
11238		9.631839	-0.802983	3.960497	-0.013057	0.019214	0.002993	1.000000	-0.000163	0.000240	0.000037	-0.257010	0.306991	0.916353	-0.873642	-0.479175	-0.084501	0.413152	-0.822282	0.391353
11239		9.622581	-0.842983	4.036577	-0.008554	0.023869	0.001517	1.000000	-0.000107	0.000298	0.000019	-0.257035	0.307028	0.916333	-0.873632	-0.479194	-0.084497	0.413159	-0.822257	0.391399
11240		9.605843	-0.880678	4.036465	0.005454	0.020608	0.001429	1.000000	0.000068	0.000258	0.000018	-0.256993	0.307064	0.916333	-0.873496	-0.479475	-0.084307	0.413471	-0.822080	0.391441
11241		9.618007	-0.894534	3.973651	0.002559	0.007795	0.004217	1.000000	0.000032	0.000097	0.000053	-0.256884	0.306790	0.916455	-0.873371	-0.479720	-0.084217	0.413805	-0.822039	0.391174
11242		9.608153	-0.803138	4.015816	-0.008147	0.013516	0.002597	1.000000	-0.000102	0.000169	0.000032	-0.256841	0.306572	0.916540	-0.873344	-0.479761	-0.084261	0.413888	-0.822097	0.390965
11243		9.623031	-0.860494	3.996694	0.005255	0.013839	-0.000164	1.000000	0.000066	0.000173	-0.000002	-0.256742	0.306470	0.916602	-0.873246	-0.479965	-0.084119	0.414157	-0.822016	0.390850
11244		9.642738	-0.858197	3.997662	-0.003955	0.021009	0.001450	1.000000	-0.000049	0.000263	0.000018	-0.256696	0.306514	0.916601	-0.873205	-0.480057	-0.084011	0.414270	-0.821946	0.390878
11245		9.576189	-0.846371	3.966213	-0.000844	0.017933	0.001772	1.000000	-0.000011	0.000224	0.000022	-0.256651	0.306438	0.916638	-0.873115	-0.480238	-0.083919	0.414489	-0.821868	0.390809
11246		9.629196	-0.872582	3.990458	-0.011014	0.013102	0.009244	1.000000	-0.000138	0.000164	0.000116	-0.256726	0.306229	0.916688	-0.873126	-0.480182	-0.084116	0.414418	-0.821979	0.390651
11247		9.666039	-0.878801	4.039927	-0.002617	0.015420	0.005164	1.000000	-0.000033	0.000193	0.000065	-0.256758	0.306099	0.916722	-0.873080	-0.480256	-0.084174	0.414495	-0.821984	0.390559
11248		9.581291	-0.823172	3.979765	-0.001000	0.024169	0.005848	1.000000	-0.000013	0.000302	0.000073	-0.256850	0.306161	0.916675	-0.872994	-0.480416	-0.084156	0.414620	-0.821867	0.390672
11249		9.609219	-0.842407	3.990501	-0.004058	0.007967	0.004888	1.000000	-0.000051	0.000100	0.000061	-0.256813	0.305878	0.916780	-0.872971	-0.480442	-0.084245	0.414691	-0.821958	0.390406
11250		9.645227	-0.859876	3.986714	0.006922	0.000902	0.007743	1.000000	0.000087	0.000011	0.000097	-0.256737	0.305422	0.916954	-0.872803	-0.480747	-0.084246	0.415092	-0.821949	0.389998
11251		9.617659	-0.849662	3.966249	0.002143	0.013269	0.003740	1.000000	0.000027	0.000166	0.000047	-0.256655	0.305249	0.917034	-0.872666	-0.481017	-0.084123	0.415431	-0.821855	0.389836
11252		9.615189	-0.812531	3.989759	-0.000462	0.010298	0.008006	1.000000	-0.000006	0.000129	0.000100	-0.256677	0.304980	0.917117	-0.872566	-0.481186	-0.084194	0.415626	-0.821856	0.389624
11253		9.605514	-0.811621	3.995021	-0.001806	0.005923	0.007626	1.000000	-0.000023	0.000074	0.000095	-0.256630	0.304632	0.917246	-0.872479	-0.481336	-0.084245	0.415839	-0.821897	0.389310
11254		9.621475	-0.886501	3.930533	0.005045	-0.002274	0.003403	1.000000	0.000063	-0.000028	0.000043	-0.256409	0.304154	0.917467	-0.872344	-0.481598	-0.084141	0.416258	-0.821921	0.388813
11255		9.616816	-0.915062	3.974152	0.002845	0.012757	0.006311	1.000000	0.000036	0.000159	0.000079	-0.256393	0.303939	0.917542	-0.872197	-0.481871	-0.084100	0.416576	-0.821840	0.388643
11256		9.635804	-0.822507	3.979175	-0.003423	0.021875	0.008705	1.000000	-0.000043	0.000273	0.000109	-0.256554	0.303850	0.917527	-0.872097	-0.482031	-0.084221	0.416686	-0.821779	0.388653
11257		9.601265	-0.837023	3.995039	-0.012674	0.016054	0.004636	1.000000	-0.000158	0.000201	0.000058	-0.256546	0.303777	0.917553	-0.872168	-0.481886	-0.084317	0.416543	-0.821891	0.388570
11258		9.602665	-0.915622	3.900958	-0.002289	0.013167	0.006614	1.000000	-0.000029	0.000165	0.000083	-0.256555	0.303560	0.917622	-0.872079	-0.482040	-0.084357	0.416723	-0.821881	0.388398
11259		9.606883	-0.896986	3.958915	-0.005808	0.015395	0.004907	1.000000	-0.000073	0.000192	0.000061	-0.256574	0.303394	0.917672	-0.872040	-0.482098	-0.084428	0.416793	-0.821908	0.388265
11260		9.618708	-0.911859	3.897762	0.000163	0.027470	0.003702	1.000000	0.000002	0.000343	0.000046	-0.256674	0.303572	0.917585	-0.871995	-0.482185	-0.084396	0.416825	-0.821792	0.388478
11261		9.603347	-0.828559	3.939966	-0.004390	0.023096	0.003091	1.000000	-0.000055	0.000289	0.000039	-0.256732	0.303635	0.917548	-0.871988	-0.482193	-0.084417	0.416803	-0.821764	0.388560
11262		9.609197	-0.849835	4.009712	0.004320	0.006041	0.003255	1.000000	0.000054	0.000076	0.000041	-0.256602	0.303300	0.917695	-0.871848	-0.482462	-0.084327	0.417176	-0.821730	0.388232
11263		9.612606	-0.839127	3.926964	0.001565	0.011103	0.001941	1.000000	0.000020	0.000139	0.000024	-0.256496	0.303110	0.917788	-0.871765	-0.482628	-0.084240	0.417416	-0.821702	0.388033
11264		9.635210	-0.880682	3.915906	-0.009142	0.024620	0.002675	1.000000	-0.000114	0.000308	0.000033	-0.256560	0.303235	0.917728	-0.871832	-0.482496	-0.084303	0.417237	-0.821733	0.388159
11265		9.610284	-0.845943	3.944805	0.003718	0.018623	0.006571	1.000000	0.000046	0.000233	0.000082	-0.256603	0.303174	0.917737	-0.871704	-0.482734	-0.084261	0.417477	-0.821616	0.388149
11266		9.608607	-0.833679	4.024019	-0.001933	0.016955	0.011014	1.000000	-0.000024	0.000212	0.000138	-0.256754	0.302997	0.917753	-0.871602	-0.482892	-0.084416	0.417598	-0.821589	0.388077
11267		9.616138	-0.785665	4.008169	-0.009484	0.017508	0.006339	1.000000	-0.000119	0.000219	0.000079	-0.256818	0.302923	0.917759	-0.871638	-0.482802	-0.084554	0.417483	-0.821669	0.388031
11268		9.613837	-0.889956	3.868144	-0.020726	0.015096	0.005845	1.000000	-0.000259	0.000189	0.000073	-0.256866	0.302804	0.917785	-0.871806	-0.482451	-0.084823	0.417102	-0.821919	0.387912
11269		9.561389	-0.841385	3.863893	-0.008179	0.011931	0.010075	1.000000	-0.000102	0.000149	0.000126	-0.256926	0.302542	0.917855	-0.871771	-0.482485	-0.084990	0.417138	-0.821996	0.387710
11270		9.614768	-0.854902	3.962152	-0.009564	0.008449	0.009430	1.000000	-0.000120	0.000106	0.000118	-0.256947	0.302177	0.917969	-0.871729	-0.482530	-0.085164	0.417213	-0.822103	0.387401
11271		9.637209	-0.788938	3.996446	0.002135	0.014702	0.005243	1.000000	0.000027	0.000184	0.000066	-0.256945	0.301964	0.918040	-0.871573	-0.482819	-0.085129	0.417541	-0.822012	0.387241
11272		9.642295	-0.785976	3.956006	-0.005825	0.015633	0.002794	1.000000	-0.000073	0.000195	0.000035	-0.256898	0.301844	0.918092	-0.871551	-0.482859	-0.085124	0.417615	-0.822032	0.387118
11273		9.587655	-0.820738	3.908578	-0.015347	0.025881	0.002568	1.000000	-0.000192	0.000324	0.000032	-0.256934	0.301955	0.918046	-0.871632	-0.482702	-0.085178	0.417423	-0.822084	0.387216
11274		9.605558	-0.854541	3.937387	-0.008023	0.017387	0.002093	1.000000	-0.000100	0.000217	0.000026	-0.256902	0.301922	0.918066	-0.871679	-0.482613	-0.085206	0.417345	-0.822148	0.387163
11275		9.640531	-0.888957	3.894452	-0.005501	0.019697	0.005140	1.000000	-0.000069	0.000246	0.000064	-0.256944	0.301868	0.918072	-0.871645	-0.482668	-0.085246	0.417391	-0.822136	0.387140
11276		9.550895	-0.896043	3.902090	-0.008130	0.016724	0.009391	1.000000	-0.000102	0.000209	0.000117	-0.257049	0.301731	0.918087	-0.871639	-0.482647	-0.085422	0.417337	-0.822199	0.387065
11277		9.599999	-0.858466	3.916527	0.006491	0.007538	0.010873	1.000000	0.000081	0.000094	0.000136	-0.257119	0.301364	0.918188	-0.871465	-0.482944	-0.085525	0.417659	-0.822159	0.386802
11278		9.598747	-0.862442	3.952247	0.001093	0.020378	0.004227	1.000000	0.000014	0.000255	0.000053	-0.257136	0.301288	0.918209	-0.871327	-0.483205	-0.085455	0.417937	-0.822033	0.386769
11279		9.631252	-0.834056	3.876238	-0.004807	0.018570	0.005903	1.000000	-0.000060	0.000232	0.000074	-0.257178	0.301208	0.918223	-0.871286	-0.483270	-0.085503	0.417995	-0.822024	0.386725
11280		9.592149	-0.889195	3.859272	0.010297	0.020129	0.005380	1.000000	0.000129	0.000252	0.000067	-0.257207	0.301211	0.918214	-0.871122	-0.483587	-0.085380	0.418318	-0.821837	0.386774
11281		9.588388	-0.795342	3.892331	0.011161	0.019706	0.004775	1.000000	0.000140	0.000246	0.000060	-0.257273	0.301162	0.918211	-0.870938	-0.483932	-0.085303	0.418662	-0.821651	0.386796
11282		9.589446	-0.844106	3.950068	-0.006739	0.024952	0.003407	1.000000	-0.000084	0.000312	0.000043	-0.257346	0.301285	0.918150	-0.870983	-0.483843	-0.085356	0.418524	-0.821659	0.386929
11283		9.620118	-0.848040	3.869145	-0.001568	0.018271	0.008186	1.000000	-0.000020	0.000228	0.000102	-0.257482	0.301173	0.918149	-0.870918	-0.483934	-0.085496	0.418575	-0.821646	0.386901
11284		9.577907	-0.844568	3.906235	-0.004679	0.015034	0.006948	1.000000	-0.000058	0.000188	0.000087	-0.257490	0.301053	0.918186	-0.870904	-0.483949	-0.085554	0.418599	-0.821682	0.386800
11285		9.618230	-0.841926	3.959789	0.005001	0.012061	0.004632	1.000000	0.000063	0.000151	0.000058	-0.257400	0.300900	0.918262	-0.870801	-0.484153	-0.085447	0.418868	-0.821617	0.386645
11286		9.618768	-0.828055	3.926528	-0.009160	0.021189	0.004728	1.000000	-0.000114	0.000265	0.000059	-0.257477	0.300852	0.918256	-0.870802	-0.484133	-0.085552	0.418819	-0.821646	0.386636
11287		9.593588	-0.842155	3.851375	0.000389	0.024722	0.010309	1.000000	0.000005	0.000309	0.000129	-0.257647	0.300847	0.918210	-0.870675	-0.484350	-0.085614	0.418978	-0.821521	0.386731
11288		9.595587	-0.838537	3.892207	0.004048	0.016300	0.008004	1.000000	0.000051	0.000204	0.000100	-0.257703	0.300700	0.918242	-0.870537	-0.484597	-0.085623	0.419230	-0.821429	0.386653
11289		9.613013	-0.853330	3.930508	-0.006868	0.016779	0.006220	1.000000	-0.000086	0.000210	0.000078	-0.257702	0.300612	0.918271	-0.870544	-0.484576	-0.085673	0.419218	-0.821474	0.386572
11290		9.609658	-0.904169	3.887008	-0.006186	0.022825	0.007587	1.000000	-0.000077	0.000285	0.000095	-0.257817	0.300638	0.918230	-0.870548	-0.484549	-0.085782	0.419139	-0.821479	0.386645
11291		9.585785	-0.872048	3.892654	0.017069	0.025031	0.013849	1.000000	0.000213	0.000313	0.000173	-0.258077	0.300633	0.918159	-0.870263	-0.485058	-0.085791	0.419569	-0.821181	0.386812
11292		9.617323	-0.813623	3.935382	-0.005026	0.020178	0.008462	1.000000	-0.000063	0.000252	0.000106	-0.258168	0.300535	0.918166	-0.870197	-0.485162	-0.085876	0.419651	-0.821155	0.386778
11293		9.587255	-0.912008	3.896239	-0.015576	0.037552	0.008638	1.000000	-0.000195	0.000469	0.000108	-0.258485	0.300814	0.917985	-0.870270	-0.484988	-0.086124	0.419304	-0.821156	0.387152
11294		9.604674	-0.857981	3.909110	-0.009888	0.034145	0.012868	1.000000	-0.000124	0.000427	0.000161	-0.258812	0.300972	0.917841	-0.870244	-0.484993	-0.086356	0.419155	-0.821095	0.387442
11295		9.608915	-0.864861	3.968372	-0.000725	0.019861	0.010842	1.000000	-0.000009	0.000248	0.000136	-0.258943	0.300897	0.917829	-0.870165	-0.485116	-0.086458	0.419238	-0.821051	0.387447
11296		9.627965	-0.841375	3.915432	-0.007172	0.014194	0.011267	1.000000	-0.000090	0.000177	0.000141	-0.259060	0.300643	0.917879	-0.870116	-0.485168	-0.086667	0.419269	-0.821113	0.387281
11297		9.609719	-0.901104	3.960915	-0.003713	0.034253	0.008548	1.000000	-0.000046	0.000428	0.000107	-0.259326	0.300817	0.917747	-0.870033	-0.485297	-0.086775	0.419276	-0.820973	0.387571
11298		9.618450	-0.820906	3.953933	-0.003248	0.025573	0.008074	1.000000	-0.000041	0.000320	0.000101	-0.259457	0.300844	0.917701	-0.869961	-0.485415	-0.086830	0.419344	-0.820893	0.387667
11299		9.592323	-0.888788	3.895398	-0.008531	0.023825	0.008175	1.000000	-0.000107	0.000298	0.000102	-0.259582	0.300877	0.917655	-0.869982	-0.485355	-0.086961	0.419224	-0.820917	0.387747
11300		9.614466	-0.901963	3.979492	0.009917	0.019465	0.001923	1.000000	0.000124	0.000243	0.000024	-0.259499	0.300920	0.917664	-0.869862	-0.485609	-0.086740	0.419524	-0.820750	0.387774
11301		9.593814	-0.886206	3.917322	0.002497	0.017728	0.001850	1.000000	0.000031	0.000222	0.000023	-0.259443	0.300870	0.917696	-0.869788	-0.485759	-0.086640	0.419712	-0.820679	0.387720
11302		9.592895	-0.870279	3.908343	-0.001129	0.018998	0.009445	1.000000	-0.000014	0.000237	0.000118	-0.259549	0.300741	0.917709	-0.869689	-0.485922	-0.086727	0.419852	-0.820631	0.387672
11303		9.598920	-0.879791	3.975312	0.008677	0.026487	0.005559	1.000000	0.000108	0.000331	0.000069	-0.259673	0.300820	0.917648	-0.869522	-0.486231	-0.086660	0.420120	-0.820418	0.387831
11304		9.607225	-0.848440	3.951400	0.007501	0.022258	0.002024	1.000000	0.000094	0.000278	0.000025	-0.259670	0.300857	0.917637	-0.869393	-0.486488	-0.086518	0.420390	-0.820253	0.387889
11305		9.624466	-0.820246	3.923990	0.000200	0.024156	0.003594	1.000000	0.000003	0.000302	0.000045	-0.259735	0.300913	0.917600	-0.869333	-0.486598	-0.086500	0.420473	-0.820167	0.387980
11306		9.622149	-0.877075	3.922863	-0.005665	0.028029	0.004271	1.000000	-0.000071	0.000350	0.000053	-0.259834	0.301055	0.917525	-0.869337	-0.486585	-0.086531	0.420404	-0.820122	0.388150
11307		9.582703	-0.953715	3.929255	-0.000567	0.028751	0.001695	1.000000	-0.000007	0.000359	0.000021	-0.259887	0.301201	0.917462	-0.869270	-0.486720	-0.086447	0.420510	-0.819989	0.388317
11308		9.599235	-0.905667	3.912624	0.012681	0.020337	0.000262	1.000000	0.000159	0.000254	0.000003	-0.259799	0.301223	0.917480	-0.869094	-0.487081	-0.086182	0.420927	-0.819767	0.388334
11309		9.591798	-0.871441	3.903380	0.017216	0.026386	0.000325	1.000000	0.000215	0.000330	0.000004	-0.259791	0.301407	0.917422	-0.868907	-0.487465	-0.085903	0.421319	-0.819471	0.388534
11310		9.610482	-0.869972	3.939820	0.016139	0.026661	-0.001837	1.000000	0.000202	0.000333	-0.000023	-0.259745	0.301574	0.917380	-0.868706	-0.487879	-0.085582	0.421761	-0.819163	0.388703
11311		9.591699	-0.809691	3.936266	-0.003964	0.028321	0.000698	1.000000	-0.000050	0.000354	0.000009	-0.259775	0.301775	0.917305	-0.868729	-0.487847	-0.085527	0.421695	-0.819108	0.388891
11312		9.615032	-0.819791	3.934054	-0.007453	0.031437	0.004549	1.000000	-0.000093	0.000393	0.000057	-0.259915	0.301987	0.917196	-0.868756	-0.487790	-0.085584	0.421553	-0.819064	0.389137
11313		9.610973	-0.838327	3.954376	-0.005420	0.027204	0.001295	1.000000	-0.000068	0.000340	0.000016	-0.259945	0.302121	0.917143	-0.868759	-0.487791	-0.085545	0.421529	-0.819014	0.389269
11314		9.592582	-0.868706	3.914020	-0.001156	0.027463	-0.000411	1.000000	-0.000014	0.000343	-0.000005	-0.259940	0.302280	0.917092	-0.868727	-0.487868	-0.085426	0.421597	-0.818909	0.389415
11315		9.577274	-0.862693	3.971194	-0.006930	0.028144	0.005188	1.000000	-0.000087	0.000352	0.000065	-0.260049	0.302400	0.917021	-0.868732	-0.487849	-0.085481	0.421519	-0.818875	0.389570
11316		9.626523	-0.804233	3.944734	-0.002636	0.027221	-0.000087	1.000000	-0.000033	0.000340	-0.000001	-0.260067	0.302555	0.916965	-0.868723	-0.487879	-0.085408	0.421527	-0.818801	0.389718
11317		9.613349	-0.833271	3.948519	-0.005354	0.025118	-0.002037	1.000000	-0.000067	0.000314	-0.000025	-0.260007	0.302708	0.916932	-0.868769	-0.487815	-0.085306	0.421470	-0.818782	0.389819
11318		9.625674	-0.867160	3.933119	-0.003380	0.014997	0.003674	1.000000	-0.000042	0.000187	0.000046	-0.259924	0.302606	0.916989	-0.868767	-0.487825	-0.085273	0.421526	-0.818814	0.389692
11319		9.584889	-0.920032	3.938944	0.006015	0.023119	0.005869	1.000000	0.000075	0.000289	0.000073	-0.260007	0.302655	0.916949	-0.868667	-0.488007	-0.085241	0.421679	-0.818687	0.389792
11320		9.601665	-0.781586	3.926373	0.003024	0.023252	0.008321	1.000000	0.000038	0.000291	0.000104	-0.260097	0.302666	0.916920	-0.868568	-0.488184	-0.085237	0.421827	-0.818578	0.389862
11321		9.608976	-0.870853	3.985489	-0.009400	0.033520	0.004390	1.000000	-0.000117	0.000419	0.000055	-0.260238	0.302955	0.916785	-0.868647	-0.488033	-0.085301	0.421579	-0.818561	0.390165
11322		9.606856	-0.870057	3.959305	-0.008595	0.018897	0.002752	1.000000	-0.000107	0.000236	0.000034	-0.260190	0.302919	0.916810	-0.868691	-0.487953	-0.085312	0.421518	-0.818622	0.390104
11323		9.606133	-0.867232	3.898834	-0.002775	0.016229	0.011591	1.000000	-0.000035	0.000203	0.000145	-0.260349	0.302711	0.916834	-0.868615	-0.488051	-0.085517	0.421575	-0.818640	0.390003
11324		9.588108	-0.856373	3.968560	-0.004292	0.017436	0.007521	1.000000	-0.000054	0.000218	0.000094	-0.260390	0.302567	0.916870	-0.868567	-0.488124	-0.085592	0.421649	-0.818650	0.389902
11325		9.659065	-0.854401	3.964482	-0.007253	0.034046	0.000422	1.000000	-0.000091	0.000426	0.000005	-0.260470	0.302858	0.916751	-0.868607	-0.488059	-0.085556	0.421518	-0.818581	0.390189
11326		9.595190	-0.853384	3.982558	0.004658	0.027023	0.003682	1.000000	0.000058	0.000338	0.000046	-0.260522	0.302983	0.916695	-0.868511	-0.488249	-0.085454	0.421684	-0.818422	0.390343
11327		9.606941	-0.866257	3.946326	-0.003949	0.020850	0.008022	1.000000	-0.000049	0.000261	0.000100	-0.260614	0.302907	0.916694	-0.868462	-0.488319	-0.085545	0.421727	-0.818408	0.390326
11328		9.588555	-0.880077	3.914490	-0.007789	0.020240	0.013385	1.000000	-0.000097	0.000253	0.000167	-0.260807	0.302786	0.916679	-0.868445	-0.488306	-0.085793	0.421643	-0.818461	0.390306
11329		9.613413	-0.795703	4.006573	-0.012055	0.020818	0.008870	1.000000	-0.000151	0.000260	0.000111	-0.260894	0.302710	0.916679	-0.868484	-0.488208	-0.085960	0.421509	-0.818548	0.390269
11330		9.601545	-0.837047	3.924948	-0.011329	0.017665	0.006380	1.000000	-0.000142	0.000221	0.000080	-0.260877	0.302622	0.916713	-0.868548	-0.488079	-0.086047	0.421388	-0.818657	0.390170
11331		9.621831	-0.836741	3.925499	-0.004668	0.007459	0.002334	1.000000	-0.000058	0.000093	0.000029	-0.260713	0.302358	0.916847	-0.868562	-0.488057	-0.086032	0.421461	-0.818768	0.389859
11332		9.628175	-0.870637	3.887607	-0.011124	0.018350	0.004989	1.000000	-0.000139	0.000229	0.000062	-0.260718	0.302297	0.916866	-0.868636	-0.487906	-0.086137	0.421305	-0.818880	0.389791
11333		9.576874	-0.926725	3.960599	-0.012488	0.022292	0.002816	1.000000	-0.000156	0.000279	0.000035	-0.260680	0.302339	0.916863	-0.868731	-0.487731	-0.086164	0.421132	-0.818968	0.389793
11334		9.603613	-0.902563	3.930201	0.007135	0.022154	0.006210	1.000000	0.000089	0.000277	0.000078	-0.260733	0.302310	0.916857	-0.868579	-0.488015	-0.086093	0.421414	-0.818810	0.389821
11335		9.617492	-0.870316	3.950170	0.010641	0.019049	0.002388	1.000000	0.000133	0.000238	0.000030	-0.260688	0.302307	0.916871	-0.868453	-0.488267	-0.085933	0.421699	-0.818661	0.389824
11336		9.600208	-0.878377	3.886256	0.001607	0.022044	0.002967	1.000000	0.000020	0.000276	0.000037	-0.260719	0.302319	0.916858	-0.868391	-0.488383	-0.085900	0.421809	-0.818587	0.389862
11337		9.600745	-0.840035	3.957092	0.002190	0.023844	0.006772	1.000000	0.000027	0.000298	0.000085	-0.260822	0.302373	0.916811	-0.868338	-0.488472	-0.085930	0.421853	-0.818515	0.389966
11338		9.631484	-0.851622	3.974304	-0.008615	0.021154	0.003875	1.000000	-0.000108	0.000264	0.000048	-0.260860	0.302412	0.916787	-0.868425	-0.488301	-0.086028	0.421652	-0.818602	0.390000
11339		9.604142	-0.874840	3.926449	0.004450	0.019464	0.002458	1.000000	0.000056	0.000243	0.000031	-0.260832	0.302385	0.916804	-0.868340	-0.488468	-0.085935	0.421844	-0.818512	0.389981
11340		9.584770	-0.846810	3.914918	0.015414	0.015759	0.003465	1.000000	0.000193	0.000197	0.000043	-0.260775	0.302250	0.916865	-0.868115	-0.488901	-0.085741	0.422341	-0.818304	0.389881
11341		9.622519	-0.850716	3.910491	0.004156	0.013147	0.004836	1.000000	0.000052	0.000164	0.000060	-0.260766	0.302106	0.916915	-0.868057	-0.489002	-0.085755	0.422467	-0.818296	0.389760
11342		9.608168	-0.863989	3.955101	-0.000795	0.024525	0.005059	1.000000	-0.000010	0.000307	0.000063	-0.260800	0.302181	0.916881	-0.868035	-0.489046	-0.085729	0.422492	-0.818242	0.389847
11343		9.611509	-0.880798	3.963485	-0.005383	0.030210	0.002011	1.000000	-0.000067	0.000378	0.000025	-0.260866	0.302391	0.916793	-0.868069	-0.488988	-0.085717	0.422380	-0.818200	0.390057
11344		9.615448	-0.831472	3.905658	0.014919	0.018699	0.004827	1.000000	0.000186	0.000234	0.000060	-0.260834	0.302365	0.916810	-0.867896	-0.489325	-0.085538	0.422755	-0.818008	0.390054
11345		9.611334	-0.830168	3.933834	0.000858	0.016920	0.007238	1.000000	0.000011	0.000211	0.000090	-0.260885	0.302224	0.916842	-0.867819	-0.489453	-0.085594	0.422883	-0.817983	0.389967
11346		9.600286	-0.843024	3.921949	0.003867	0.016779	0.004801	1.000000	0.000048	0.000210	0.000060	-0.260852	0.302128	0.916883	-0.867740	-0.489602	-0.085539	0.423064	-0.817929	0.389883
11347		9.621863	-0.843774	3.901601	-0.000867	0.028836	0.003616	1.000000	-0.000011	0.000360	0.000045	-0.260877	0.302290	0.916823	-0.867713	-0.489665	-0.085454	0.423104	-0.817832	0.390043
11348		9.595161	-0.844825	3.934084	0.000678	0.026448	0.004126	1.000000	0.000008	0.000331	0.000052	-0.260946	0.302367	0.916778	-0.867646	-0.489789	-0.085422	0.423199	-0.817729	0.390156
11349		9.600691	-0.877969	3.899182	0.004829	0.021678	0.005260	1.000000	0.000060	0.000271	0.000066	-0.260984	0.302376	0.916764	-0.867564	-0.489942	-0.085380	0.423344	-0.817634	0.390197
11350		9.609878	-0.869898	3.896912	0.003901	0.022964	0.011443	1.000000	0.000049	0.000287	0.000143	-0.261152	0.302356	0.916723	-0.867469	-0.490093	-0.085477	0.423435	-0.817551	0.390273
11351		9.619690	-0.832385	3.932941	0.008812	0.025286	0.005630	1.000000	0.000110	0.000316	0.000070	-0.261232	0.302389	0.916689	-0.867305	-0.490399	-0.085390	0.423722	-0.817356	0.390371
11352		9.630547	-0.812703	3.958392	0.005744	0.020951	0.000831	1.000000	0.000072	0.000262	0.000010	-0.261149	0.302435	0.916697	-0.867242	-0.490539	-0.085223	0.423901	-0.817254	0.390388
11353		9.582272	-0.878720	3.924757	-0.005915	0.025763	0.004852	1.000000	-0.000074	0.000322	0.000061	-0.261242	0.302483	0.916655	-0.867238	-0.490534	-0.085289	0.423852	-0.817240	0.390472
11354		9.577891	-0.857217	3.931598	0.001040	0.016718	0.011988	1.000000	0.000013	0.000209	0.000150	-0.261378	0.302292	0.916679	-0.867144	-0.490674	-0.085444	0.423962	-0.817226	0.390382
11355		9.607206	-0.824479	3.927472	0.000233	0.014811	0.011345	1.000000	0.000003	0.000185	0.000142	-0.261478	0.302038	0.916735	-0.867034	-0.490844	-0.085583	0.424124	-0.817218	0.390222
11356		9.623161	-0.839875	3.966422	-0.002343	0.017760	0.006592	1.000000	-0.000029	0.000222	0.000082	-0.261478	0.301961	0.916760	-0.867030	-0.490844	-0.085621	0.424132	-0.817247	0.390154
11357		9.611641	-0.853223	3.955678	0.001536	0.026279	0.007328	1.000000	0.000019	0.000328	0.000092	-0.261594	0.302014	0.916710	-0.866954	-0.490976	-0.085641	0.424217	-0.817148	0.390268
11358		9.617635	-0.850530	3.918527	0.001738	0.027825	0.005651	1.000000	0.000022	0.000348	0.000071	-0.261744	0.302102	0.916638	-0.866871	-0.491116	-0.085673	0.424293	-0.817031	0.390430
11359		9.601696	-0.878559	3.946125	-0.001215	0.026796	0.004512	1.000000	-0.000015	0.000335	0.000056	-0.261795	0.302197	0.916592	-0.866839	-0.491178	-0.085645	0.424328	-0.816958	0.390544
11360		9.576117	-0.892344	3.926086	-0.007696	0.019505	0.005475	1.000000	-0.000096	0.000244	0.000068	-0.261790	0.302130	0.916615	-0.866868	-0.491116	-0.085703	0.424270	-0.817021	0.390477
11361		9.623272	-0.920055	3.909498	0.000055	0.016967	0.003899	1.000000	0.000001	0.000212	0.000049	-0.261745	0.302066	0.916649	-0.866858	-0.491138	-0.085681	0.424320	-0.817031	0.390401
11362		9.602646	-0.880408	3.950215	0.017945	0.029246	0.005537	1.000000	0.000224	0.000366	0.000069	-0.261862	0.302223	0.916564	-0.866639	-0.491553	-0.085517	0.424695	-0.816723	0.390637
11363		9.613003	-0.798248	3.942947	0.002292	0.022250	0.005121	1.000000	0.000029	0.000278	0.000064	-0.261910	0.302207	0.916556	-0.866559	-0.491695	-0.085502	0.424827	-0.816644	0.390660
11364		9.600356	-0.869159	3.957420	0.000972	0.024157	0.005539	1.000000	0.000012	0.000302	0.000069	-0.261936	0.302293	0.916520	-0.866548	-0.491720	-0.085472	0.424833	-0.816597	0.390750
11365		9.605396	-0.883761	3.932480	0.001237	0.020234	0.007633	1.000000	0.000015	0.000253	0.000095	-0.261986	0.302241	0.916523	-0.866495	-0.491808	-0.085503	0.424911	-0.816563	0.390737
11366		9.622976	-0.851921	3.896619	0.007873	0.021157	0.004822	1.000000	0.000098	0.000264	0.000060	-0.261984	0.302242	0.916523	-0.866391	-0.492008	-0.085405	0.425124	-0.816442	0.390758
11367		9.576943	-0.856740	3.906899	0.001474	0.032258	0.005251	1.000000	0.000018	0.000403	0.000066	-0.262100	0.302441	0.916424	-0.866334	-0.492116	-0.085364	0.425169	-0.816303	0.390998
11368		9.621418	-0.893290	3.966590	0.005858	0.027605	0.003267	1.000000	0.000073	0.000345	0.000041	-0.262128	0.302601	0.916363	-0.866269	-0.492251	-0.085247	0.425285	-0.816163	0.391166
11369		9.620054	-0.850202	3.928357	0.007289	0.017918	0.005418	1.000000	0.000091	0.000224	0.000068	-0.262105	0.302474	0.916412	-0.866123	-0.492523	-0.085159	0.425596	-0.816046	0.391072
11370		9.599962	-0.859400	3.920221	0.007187	0.023671	0.005465	1.000000	0.000090	0.000296	0.000068	-0.262141	0.302506	0.916391	-0.866014	-0.492729	-0.085078	0.425796	-0.815909	0.391139
11371		9.610225	-0.825738	3.966144	0.005489	0.034957	0.005875	1.000000	0.000069	0.000437	0.000073	-0.262328	0.302766	0.916251	-0.865923	-0.492894	-0.085046	0.425865	-0.815713	0.391472
11372		9.594965	-0.809400	3.950401	-0.000629	0.024339	-0.001058	1.000000	-0.000008	0.000304	-0.000013	-0.262234	0.302896	0.916235	-0.865944	-0.492882	-0.084900	0.425880	-0.815672	0.391542
11373		9.608419	-0.862395	3.925588	0.002590	0.018567	0.005106	1.000000	0.000032	0.000232	0.000064	-0.262242	0.302863	0.916244	-0.865915	-0.492933	-0.084900	0.425934	-0.815654	0.391522
11374		9.610415	-0.896480	3.946392	0.004345	0.025914	0.007944	1.000000	0.000054	0.000324	0.000099	-0.262360	0.302898	0.916198	-0.865813	-0.493112	-0.084908	0.426070	-0.815533	0.391626
11375		9.619312	-0.859426	3.983856	-0.007313	0.034735	0.006587	1.000000	-0.000091	0.000434	0.000082	-0.262573	0.303124	0.916063	-0.865837	-0.493048	-0.085028	0.425889	-0.815487	0.391917
11376		9.590130	-0.803622	3.945984	0.000098	0.018048	0.001468	1.000000	0.000001	0.000226	0.000018	-0.262452	0.303092	0.916108	-0.865834	-0.493072	-0.084918	0.425969	-0.815485	0.391835
11377		9.595404	-0.894178	3.934923	0.007551	0.018847	0.001944	1.000000	0.000094	0.000236	0.000024	-0.262373	0.303064	0.916140	-0.865742	-0.493260	-0.084767	0.426205	-0.815382	0.391793
11378		9.647260	-0.924267	3.972431	0.002392	0.019003	0.004122	1.000000	0.000030	0.000238	0.000052	-0.262331	0.303008	0.916170	-0.865689	-0.493363	-0.084705	0.426338	-0.815340	0.391736
11379		9.610490	-0.925152	3.938860	0.003387	0.034901	0.005585	1.000000	0.000042	0.000436	0.000070	-0.262506	0.303290	0.916027	-0.865643	-0.493448	-0.084690	0.426326	-0.815184	0.392074
11380		9.575013	-0.797476	3.906907	0.009351	0.022726	0.005921	1.000000	0.000117	0.000284	0.000074	-0.262524	0.303311	0.916015	-0.865524	-0.493672	-0.084589	0.426554	-0.815040	0.392124
11381		9.602060	-0.842812	3.951390	-0.000594	0.018555	0.004733	1.000000	-0.000007	0.000232	0.000059	-0.262497	0.303224	0.916052	-0.865490	-0.493735	-0.084576	0.426641	-0.815034	0.392041
11382		9.623590	-0.850617	3.972332	0.007618	0.026399	0.004106	1.000000	0.000095	0.000330	0.000051	-0.262566	0.303324	0.915999	-0.865387	-0.493929	-0.084499	0.426807	-0.814880	0.392182
11383		9.610357	-0.846558	3.904704	0.008022	0.026333	0.005731	1.000000	0.000100	0.000329	0.000072	-0.262656	0.303403	0.915947	-0.865270	-0.494143	-0.084441	0.426989	-0.814720	0.392315
11384		9.592259	-0.809398	3.921037	0.004318	0.017411	0.005987	1.000000	0.000054	0.000218	0.000075	-0.262653	0.303285	0.915987	-0.865181	-0.494302	-0.084420	0.427171	-0.814668	0.392226
11385		9.625171	-0.900074	3.929463	-0.007838	0.021008	0.001959	1.000000	-0.000098	0.000263	0.000024	-0.262620	0.303312	0.915987	-0.865267	-0.494146	-0.084451	0.427017	-0.814752	0.392219
11386		9.595173	-0.886910	3.934587	0.003643	0.025658	0.000770	1.000000	0.000046	0.000321	0.000010	-0.262611	0.303433	0.915950	-0.865226	-0.494237	-0.084339	0.427105	-0.814652	0.392330
11387		9.594896	-0.840472	3.964405	0.000310	0.019263	0.001792	1.000000	0.000004	0.000241	0.000022	-0.262532	0.303413	0.915979	-0.865216	-0.494268	-0.084259	0.427174	-0.814641	0.392279
11388		9.630055	-0.850678	3.926363	0.001312	0.022403	0.002794	1.000000	0.000016	0.000280	0.000035	-0.262531	0.303426	0.915975	-0.865173	-0.494351	-0.084212	0.427261	-0.814585	0.392299
11389		9.613923	-0.865852	3.903259	0.009248	0.021981	0.001386	1.000000	0.000116	0.000275	0.000017	-0.262456	0.303441	0.915992	-0.865050	-0.494602	-0.084013	0.427558	-0.814428	0.392302
11390		9.595416	-0.925133	3.925790	-0.000495	0.037082	0.007844	1.000000	-0.000006	0.000464	0.000098	-0.262739	0.303716	0.915819	-0.865016	-0.494642	-0.084124	0.427453	-0.814301	0.392681
11391		9.601998	-0.850585	3.983880	-0.002346	0.023466	0.015003	1.000000	-0.000029	0.000293	0.000188	-0.262988	0.303620	0.915780	-0.864951	-0.494713	-0.084373	0.427431	-0.814293	0.392720
11392		9.594614	-0.816070	3.964689	0.005322	0.016797	0.010188	1.000000	0.000067	0.000210	0.000127	-0.263051	0.303486	0.915806	-0.864870	-0.494845	-0.084435	0.427557	-0.814263	0.392645
11393		9.634614	-0.824129	3.939463	-0.006680	0.027662	0.004458	1.000000	-0.000084	0.000346	0.000056	-0.263120	0.303580	0.915755	-0.864899	-0.494785	-0.084482	0.427455	-0.814265	0.392753
11394		9.592064	-0.906884	3.908795	-0.002783	0.034944	0.007486	1.000000	-0.000035	0.000437	0.000094	-0.263353	0.303800	0.915615	-0.864881	-0.494800	-0.084586	0.427349	-0.814174	0.393057
11395		9.578192	-0.908462	3.950686	0.006264	0.023065	0.012067	1.000000	0.000078	0.000288	0.000151	-0.263525	0.303758	0.915579	-0.864769	-0.494978	-0.084684	0.427468	-0.814081	0.393120
11396		9.636301	-0.892514	3.957349	0.020582	0.013589	0.007744	1.000000	0.000257	0.000170	0.000097	-0.263516	0.303544	0.915653	-0.864504	-0.495464	-0.084547	0.428009	-0.813865	0.392978
11397		9.619413	-0.873477	3.962941	0.009849	0.025696	0.002481	1.000000	0.000123	0.000321	0.000031	-0.263505	0.303651	0.915621	-0.864398	-0.495677	-0.084380	0.428230	-0.813695	0.393089
11398		9.596963	-0.802334	3.964587	0.015774	0.025116	0.005647	1.000000	0.000197	0.000314	0.000071	-0.263628	0.303696	0.915570	-0.864195	-0.496046	-0.084296	0.428565	-0.813454	0.393224
11399		9.608520	-0.871743	3.954209	0.018847	0.020672	0.004725	1.000000	0.000236	0.000258	0.000059	-0.263629	0.303683	0.915574	-0.863986	-0.496441	-0.084112	0.428986	-0.813217	0.393254
11400		9.607164	-0.835749	3.956566	0.010580	0.022420	0.010717	1.000000	0.000132	0.000280	0.000134	-0.263787	0.303654	0.915538	-0.863845	-0.496678	-0.084161	0.429172	-0.813084	0.393327
11401		9.613167	-0.867154	3.990975	-0.002335	0.030552	0.010489	1.000000	-0.000029	0.000382	0.000131	-0.263999	0.303764	0.915441	-0.863821	-0.496696	-0.084297	0.429089	-0.813032	0.393525
11402		9.602419	-0.818098	3.947734	0.004460	0.025149	0.005974	1.000000	0.000056	0.000314	0.000075	-0.264087	0.303855	0.915385	-0.863783	-0.496761	-0.084304	0.429111	-0.812958	0.393653
11403		9.603651	-0.852165	3.969550	0.005676	0.026103	0.008514	1.000000	0.000071	0.000326	0.000106	-0.264206	0.303898	0.915337	-0.863686	-0.496927	-0.084314	0.429233	-0.812840	0.393764
11404		9.605454	-0.861003	3.959387	-0.007011	0.014537	0.009184	1.000000	-0.000088	0.000182	0.000115	-0.264248	0.303688	0.915394	-0.863711	-0.496854	-0.084494	0.429157	-0.812964	0.393591
11405		9.615995	-0.900298	3.977012	-0.009564	0.025867	0.012074	1.000000	-0.000120	0.000323	0.000151	-0.264435	0.303707	0.915334	-0.863777	-0.496697	-0.084736	0.428909	-0.813052	0.393679
11406		9.662614	-0.945126	3.944962	-0.003367	0.027100	0.011509	1.000000	-0.000042	0.000339	0.000144	-0.264664	0.303711	0.915266	-0.863739	-0.496731	-0.084935	0.428845	-0.813030	0.393794
11407		9.561043	-0.867733	3.959755	0.011016	0.026866	0.008790	1.000000	0.000138	0.000336	0.000110	-0.264805	0.303767	0.915207	-0.863585	-0.497002	-0.084909	0.429067	-0.812844	0.393937
11408		9.594002	-0.826230	3.962406	0.007556	0.020799	0.013647	1.000000	0.000094	0.000260	0.000171	-0.264990	0.303658	0.915190	-0.863454	-0.497208	-0.085038	0.429217	-0.812758	0.393950
11409		9.612580	-0.833837	4.005863	0.002788	0.011382	0.012068	1.000000	0.000035	0.000142	0.000151	-0.265031	0.303363	0.915276	-0.863372	-0.497329	-0.085165	0.429357	-0.812794	0.393723
11410		9.635861	-0.880474	3.928551	-0.002329	0.023241	0.006233	1.000000	-0.000029	0.000291	0.000078	-0.265078	0.303342	0.915269	-0.863349	-0.497363	-0.085204	0.429375	-0.812782	0.393730
11411		9.620507	-0.887671	3.933003	0.001161	0.024278	0.011735	1.000000	0.000015	0.000303	0.000147	-0.265251	0.303311	0.915229	-0.863285	-0.497450	-0.085339	0.429396	-0.812740	0.393792
11412		9.626439	-0.934119	3.948462	-0.001992	0.028013	0.008127	1.000000	-0.000025	0.000350	0.000102	-0.265399	0.303396	0.915158	-0.863275	-0.497451	-0.085437	0.429325	-0.812708	0.393937
11413		9.570362	-0.917219	3.969994	0.004703	0.022907	0.007469	1.000000	0.000059	0.000286	0.000093	-0.265513	0.303351	0.915140	-0.863166	-0.497632	-0.085478	0.429473	-0.812613	0.393970
11414		9.608893	-0.915443	3.928341	0.008630	0.022338	0.004550	1.000000	0.000108	0.000279	0.000057	-0.265510	0.303346	0.915143	-0.863051	-0.497850	-0.085372	0.429707	-0.812482	0.393987
11415		9.622689	-0.842386	4.014637	0.020307	0.023488	-0.001274	1.000000	0.000254	0.000294	-0.000016	-0.265424	0.303459	0.915130	-0.862867	-0.498224	-0.085054	0.430129	-0.812211	0.394085
11416		9.589580	-0.933728	3.951918	0.020659	0.019600	-0.004997	1.000000	0.000258	0.000245	-0.000062	-0.265190	0.303527	0.915175	-0.862695	-0.498594	-0.084619	0.430617	-0.811957	0.394074
11417		9.593518	-0.945677	3.882305	0.025840	0.017823	0.002060	1.000000	0.000323	0.000223	0.000026	-0.265100	0.303437	0.915231	-0.862389	-0.499179	-0.084296	0.431286	-0.811632	0.394013
11418		9.600969	-0.868016	3.937895	0.010180	0.019517	0.011940	1.000000	0.000127	0.000244	0.000149	-0.265232	0.303312	0.915234	-0.862236	-0.499433	-0.084360	0.431511	-0.811523	0.393992
11419		9.638591	-0.850227	3.983027	-0.009103	0.023472	0.012390	1.000000	-0.000114	0.000293	0.000155	-0.265392	0.303265	0.915204	-0.862292	-0.499295	-0.084601	0.431300	-0.811625	0.394011
11420		9.604174	-0.902102	3.977675	0.004139	0.031067	0.002121	1.000000	0.000052	0.000388	0.000027	-0.265447	0.303467	0.915121	-0.862243	-0.499395	-0.084502	0.431364	-0.811488	0.394225
11421		9.592156	-0.867947	3.947641	0.011514	0.023447	0.000872	1.000000	0.000144	0.000293	0.000011	-0.265347	0.303554	0.915121	-0.862148	-0.499600	-0.084266	0.431615	-0.811329	0.394276
11422		9.605330	-0.860935	3.921757	0.006026	0.016703	0.008526	1.000000	0.000075	0.000209	0.000107	-0.265371	0.303404	0.915164	-0.862055	-0.499757	-0.084287	0.431786	-0.811289	0.394172
11423		9.629791	-0.928990	3.988751	-0.006181	0.021474	0.007869	1.000000	-0.000077	0.000268	0.000098	-0.265417	0.303359	0.915165	-0.862101	-0.499659	-0.084400	0.431667	-0.811365	0.394144
11424		9.615480	-0.884459	3.931737	-0.009232	0.026741	0.008420	1.000000	-0.000115	0.000334	0.000105	-0.265546	0.303396	0.915115	-0.862159	-0.499531	-0.084566	0.431471	-0.811431	0.394224
11425		9.604439	-0.873683	3.967712	-0.010623	0.025385	0.005201	1.000000	-0.000133	0.000317	0.000065	-0.265561	0.303465	0.915088	-0.862273	-0.499320	-0.084648	0.431234	-0.811535	0.394269
11426		9.595773	-0.860661	3.971705	-0.011162	0.028852	0.008224	1.000000	-0.000140	0.000361	0.000103	-0.265706	0.303546	0.915019	-0.862354	-0.499150	-0.084826	0.430983	-0.811609	0.394391
11427		9.634793	-0.881104	3.998179	-0.008478	0.028747	0.004227	1.000000	-0.000106	0.000359	0.000053	-0.265776	0.303672	0.914957	-0.862429	-0.499008	-0.084898	0.430789	-0.811649	0.394520
11428		9.595306	-0.904985	3.941521	-0.003467	0.031562	0.000244	1.000000	-0.000043	0.000395	0.000003	-0.265794	0.303929	0.914867	-0.862497	-0.498901	-0.084839	0.430643	-0.811619	0.394742
11429		9.597649	-0.931303	3.923498	0.001855	0.028074	0.002056	1.000000	0.000023	0.000351	0.000026	-0.265795	0.304099	0.914810	-0.862503	-0.498904	-0.084753	0.430629	-0.811553	0.394893
11430		9.587018	-0.948937	3.998220	0.013543	0.016838	0.007326	1.000000	0.000169	0.000210	0.000092	-0.265804	0.303969	0.914850	-0.862343	-0.499192	-0.084686	0.430944	-0.811425	0.394813
11431		9.626503	-0.891627	3.963016	0.003093	0.019932	0.005841	1.000000	0.000039	0.000249	0.000073	-0.265847	0.303877	0.914868	-0.862266	-0.499321	-0.084711	0.431072	-0.811380	0.394766
11432		9.596380	-0.877797	3.968000	0.009390	0.030783	-0.000058	1.000000	0.000117	0.000385	-0.000001	-0.265848	0.304137	0.914782	-0.862213	-0.499445	-0.084521	0.431177	-0.811206	0.395007
11433		9.644538	-0.868047	3.952725	-0.001912	0.022657	0.001156	1.000000	-0.000024	0.000283	0.000014	-0.265787	0.304215	0.914773	-0.862273	-0.499350	-0.084471	0.431095	-0.811235	0.395037
11434		9.579807	-0.902235	3.968136	0.005917	0.020783	0.004264	1.000000	0.000074	0.000260	0.000053	-0.265757	0.304180	0.914794	-0.862198	-0.499493	-0.084390	0.431263	-0.811160	0.395007
11435		9.608829	-0.907954	3.979163	0.010451	0.026493	0.001557	1.000000	0.000131	0.000331	0.000019	-0.265742	0.304326	0.914750	-0.862118	-0.499659	-0.084221	0.431432	-0.811003	0.395146
11436		9.604906	-0.857721	3.956973	0.004016	0.029696	0.001640	1.000000	0.000050	0.000371	0.000021	-0.265784	0.304522	0.914672	-0.862094	-0.499715	-0.084136	0.431455	-0.810895	0.395342
11437		9.600906	-0.879656	3.984735	-0.002110	0.017993	0.001974	1.000000	-0.000026	0.000225	0.000025	-0.265674	0.304444	0.914730	-0.862109	-0.499699	-0.084079	0.431493	-0.810934	0.395221
11438		9.634586	-0.917384	3.933704	0.006870	0.022333	0.001043	1.000000	0.000086	0.000279	0.000013	-0.265644	0.304466	0.914731	-0.862030	-0.499854	-0.083964	0.431668	-0.810831	0.395243
11439		9.591137	-0.893334	3.956331	0.004664	0.031987	0.001256	1.000000	0.000058	0.000400	0.000016	-0.265673	0.304736	0.914633	-0.862025	-0.499883	-0.083842	0.431660	-0.810711	0.395495
11440		9.617214	-0.861055	3.989150	-0.004123	0.028032	0.002836	1.000000	-0.000052	0.000350	0.000035	-0.265715	0.304872	0.914576	-0.862075	-0.499795	-0.083856	0.431535	-0.810714	0.395626
11441		9.607400	-0.911704	4.035735	0.008590	0.025058	-0.006040	1.000000	0.000107	0.000313	-0.000076	-0.265525	0.305088	0.914559	-0.862072	-0.499853	-0.083540	0.431658	-0.810597	0.395731
11442		9.602436	-0.884918	3.922048	0.026574	0.024668	-0.006606	1.000000	0.000332	0.000308	-0.000083	-0.265322	0.305271	0.914557	-0.861850	-0.500321	-0.083029	0.432226	-0.810240	0.395844
11443		9.604806	-0.868096	3.968782	0.008487	0.028722	-0.003474	1.000000	0.000106	0.000359	-0.000043	-0.265175	0.305525	0.914515	-0.861832	-0.500402	-0.082722	0.432351	-0.810094	0.396005
11444		9.631560	-0.869032	4.049310	-0.001722	0.028243	-0.004878	1.000000	-0.000022	0.000353	-0.000061	-0.265037	0.305762	0.914475	-0.861909	-0.500302	-0.082522	0.432282	-0.810066	0.396137
11445		9.618015	-0.855212	3.919775	0.017770	0.028055	-0.005723	1.000000	0.000222	0.000351	-0.000072	-0.264863	0.306026	0.914437	-0.861801	-0.500559	-0.082099	0.432605	-0.809808	0.396313
11446		9.579371	-0.874639	3.985951	0.012404	0.041969	-0.007462	1.000000	0.000155	0.000525	-0.000093	-0.264819	0.306587	0.914262	-0.861755	-0.500702	-0.081706	0.432723	-0.809507	0.396799
11447		9.637985	-0.838313	3.986418	0.000693	0.041277	-0.008593	1.000000	0.000009	0.000516	-0.000107	-0.264779	0.307117	0.914096	-0.861813	-0.500647	-0.081428	0.432632	-0.809340	0.397238
11448		9.587844	-0.901297	4.033208	0.015674	0.050349	-0.010177	1.000000	0.000196	0.000629	-0.000127	-0.264760	0.307900	0.913838	-0.861769	-0.500803	-0.080938	0.432732	-0.808946	0.397931
11449		9.620070	-0.894459	3.977422	0.004446	0.045068	-0.011961	1.000000	0.000056	0.000563	-0.000150	-0.264672	0.308546	0.913645	-0.861809	-0.500799	-0.080531	0.432705	-0.808702	0.398455
11450		9.620264	-0.928075	4.011910	0.026302	0.035201	-0.005438	1.000000	0.000329	0.000440	-0.000068	-0.264597	0.308941	0.913534	-0.861598	-0.501240	-0.080043	0.433172	-0.808278	0.398809
11451		9.615451	-0.916512	4.003516	0.018741	0.034586	0.002527	1.000000	0.000234	0.000432	0.000032	-0.264691	0.309204	0.913418	-0.861399	-0.501620	-0.079812	0.433510	-0.807942	0.399122
11452		9.647178	-0.945169	3.986644	-0.022194	0.058037	0.006787	1.000000	-0.000277	0.000725	0.000085	-0.265144	0.309897	0.913051	-0.861623	-0.501187	-0.080103	0.432786	-0.807945	0.399901
11453		9.612902	-0.869711	4.034042	-0.014008	0.069728	0.015201	1.000000	-0.000175	0.000872	0.000190	-0.265871	0.310729	0.912557	-0.861714	-0.500972	-0.080475	0.432160	-0.807759	0.400953
11454		9.639483	-0.772346	4.121016	-0.013490	0.051317	0.015679	1.000000	-0.000169	0.000641	0.000196	-0.266438	0.311189	0.912235	-0.861799	-0.500759	-0.080884	0.431640	-0.807714	0.401603
11455		9.637745	-0.816448	3.990817	-0.014245	0.047188	0.013922	1.000000	-0.000178	0.000590	0.000174	-0.266875	0.311559	0.911981	-0.861879	-0.500570	-0.081204	0.431211	-0.807688	0.402115
11456		9.608137	-0.783626	4.023338	0.004523	0.050874	0.015187	1.000000	0.000057	0.000636	0.000190	-0.267404	0.312004	0.911674	-0.861763	-0.500739	-0.081395	0.431115	-0.807412	0.402773
11457		9.634578	-0.828205	4.087482	-0.018724	0.036297	0.009854	1.000000	-0.000234	0.000454	0.000123	-0.267656	0.312236	0.911520	-0.861946	-0.500374	-0.081700	0.430591	-0.807549	0.403059
11458		9.623360	-0.848261	4.087257	-0.013308	0.030013	0.008887	1.000000	-0.000166	0.000375	0.000111	-0.267836	0.312316	0.911440	-0.862042	-0.500170	-0.081931	0.430287	-0.807644	0.403193
11459		9.584927	-0.859287	4.047580	0.002027	0.022687	0.011106	1.000000	0.000025	0.000284	0.000139	-0.267985	0.312215	0.911431	-0.861954	-0.500301	-0.082058	0.430370	-0.807602	0.403188
11460		9.681657	-0.834281	4.071076	-0.009110	0.020430	0.001530	1.000000	-0.000114	0.000255	0.000019	-0.267912	0.312230	0.911447	-0.862090	-0.500060	-0.082101	0.430144	-0.807745	0.403143
11461		9.617747	-0.904736	4.011355	-0.008522	0.024125	0.002583	1.000000	-0.000107	0.000302	0.000032	-0.267877	0.312297	0.911434	-0.862203	-0.499860	-0.082134	0.429939	-0.807843	0.403164
11462		9.603108	-0.920466	4.033657	-0.000671	0.032763	0.008589	1.000000	-0.000008	0.000410	0.000107	-0.268057	0.312474	0.911321	-0.862202	-0.499846	-0.082222	0.429828	-0.807783	0.403404
11463		9.623503	-0.802582	4.133312	0.006238	0.012769	0.013317	1.000000	0.000078	0.000160	0.000166	-0.268170	0.312178	0.911389	-0.862087	-0.500018	-0.082393	0.429989	-0.807792	0.403214
11464		9.626457	-0.816932	4.085191	0.009454	0.008951	0.008451	1.000000	0.000118	0.000112	0.000106	-0.268094	0.311868	0.911517	-0.861972	-0.500218	-0.082376	0.430267	-0.807787	0.402927
11465		9.611346	-0.869739	4.015379	0.018731	-0.004454	0.002401	1.000000	0.000234	-0.000056	0.000030	-0.267746	0.311359	0.911794	-0.861793	-0.500567	-0.082130	0.430842	-0.807768	0.402351
11466		9.633340	-0.832486	3.967676	0.000754	0.008861	0.001905	1.000000	0.000009	0.000111	0.000024	-0.267537	0.311139	0.911930	-0.861825	-0.500522	-0.082066	0.430907	-0.807880	0.402056
11467		9.652207	-0.897887	4.057326	-0.009774	0.015433	0.007582	1.000000	-0.000122	0.000193	0.000095	-0.267534	0.310946	0.911997	-0.861902	-0.500361	-0.082241	0.430755	-0.808054	0.401869
11468		9.587721	-0.948429	4.052449	0.000098	0.029696	0.006241	1.000000	0.000001	0.000371	0.000078	-0.267629	0.311109	0.911913	-0.861929	-0.500309	-0.082274	0.430642	-0.808024	0.402051
11469		9.636567	-0.904195	3.991569	0.018019	0.030853	0.002524	1.000000	0.000225	0.000386	0.000032	-0.267692	0.311294	0.911832	-0.861744	-0.500662	-0.082064	0.430974	-0.807734	0.402278
11470		9.624939	-0.839310	4.043727	0.002968	0.025761	0.004500	1.000000	0.000037	0.000322	0.000056	-0.267714	0.311359	0.911803	-0.861715	-0.500718	-0.082025	0.431017	-0.807674	0.402352
11471		9.625201	-0.878874	4.029201	0.005022	0.020674	0.006647	1.000000	0.000063	0.000258	0.000083	-0.267728	0.311281	0.911825	-0.861638	-0.500853	-0.082010	0.431163	-0.807620	0.402304
11472		9.627958	-0.890976	4.028642	0.009515	0.024351	0.006610	1.000000	0.000119	0.000304	0.000083	-0.267794	0.311300	0.911800	-0.861535	-0.501038	-0.081970	0.431329	-0.807498	0.402371
11473		9.585802	-0.831595	4.045907	0.006905	0.021642	0.007681	1.000000	0.000086	0.000271	0.000096	-0.267849	0.311246	0.911802	-0.861447	-0.501187	-0.081975	0.431469	-0.807426	0.402365
11474		9.637931	-0.850595	4.083050	-0.007246	0.023612	0.003594	1.000000	-0.000091	0.000295	0.000045	-0.267835	0.311288	0.911792	-0.861544	-0.501012	-0.082028	0.431284	-0.807519	0.402377
11475		9.634440	-0.864870	3.972088	0.002986	0.025731	0.004467	1.000000	0.000037	0.000322	0.000056	-0.267837	0.311391	0.911756	-0.861553	-0.501005	-0.081981	0.431266	-0.807483	0.402467
11476		9.604612	-0.840727	4.047992	0.003742	0.023193	0.011394	1.000000	0.000047	0.000290	0.000142	-0.268021	0.311287	0.911737	-0.861445	-0.501166	-0.082128	0.431366	-0.807424	0.402480
11477		9.641927	-0.907938	4.051428	-0.011396	0.029381	0.005581	1.000000	-0.000142	0.000367	0.000070	-0.268114	0.311424	0.911663	-0.861579	-0.500912	-0.082274	0.431041	-0.807528	0.402618
11478		9.628065	-0.883023	4.061701	-0.000523	0.027339	0.006532	1.000000	-0.000007	0.000342	0.000082	-0.268202	0.311522	0.911604	-0.861603	-0.500860	-0.082333	0.430937	-0.807523	0.402740
11479		9.601254	-0.847222	4.087312	0.011846	0.014297	0.007502	1.000000	0.000148	0.000179	0.000094	-0.268155	0.311353	0.911675	-0.861495	-0.501055	-0.082276	0.431183	-0.807467	0.402590
