// Start Time: Unknown
// Update Rate: 40.0Hz
// Filter Profile: human (46.1)
// Firmware Version: 4.3.4
PacketCounter	SampleTimeFine	Acc_X	Acc_Y	Acc_Z	Gyr_X	Gyr_Y	Gyr_Z	OriInc_q0	OriInc_q1	OriInc_q2	OriInc_q3	Mat[1][1]	Mat[2][1]	Mat[3][1]	Mat[1][2]	Mat[2][2]	Mat[3][2]	Mat[1][3]	Mat[2][3]	Mat[3][3]
10839		5.389879	-3.201882	7.489528	-0.523883	0.002367	0.254417	0.999974	-0.006548	0.000030	0.003180	0.584834	-0.593527	0.552897	0.806827	0.495948	-0.321039	-0.083663	0.633847	0.768921
10840		5.367654	-3.432780	7.505668	-0.456055	0.040998	0.259896	0.999978	-0.005701	0.000512	0.003249	0.590147	-0.590968	0.549984	0.803908	0.492540	-0.333370	-0.073878	0.638875	0.765755
10841		5.017656	-3.867096	7.201270	-0.320267	-0.006242	0.178795	0.999989	-0.004003	-0.000078	0.002235	0.594244	-0.589017	0.547662	0.801416	0.491104	-0.341394	-0.067872	0.641776	0.763883
10842		5.282291	-3.612249	7.451847	-0.170609	-0.057585	0.091667	0.999997	-0.002133	-0.000720	0.001146	0.597162	-0.586007	0.547716	0.799523	0.489768	-0.347693	-0.064503	0.645540	0.760997
10843		5.182805	-3.409175	7.609101	-0.102519	-0.107523	0.062230	0.999998	-0.001281	-0.001344	0.000778	0.599379	-0.582261	0.549287	0.797951	0.488971	-0.352396	-0.063399	0.649523	0.757694
10844		5.389546	-3.682265	7.798383	-0.140304	-0.130128	0.065664	0.999997	-0.001754	-0.001627	0.000821	0.600917	-0.580030	0.549968	0.796944	0.487691	-0.356423	-0.061478	0.652474	0.755313
10845		5.173332	-4.046216	6.965686	-0.084722	-0.107379	0.024329	0.999998	-0.001059	-0.001342	0.000304	0.600800	-0.579445	0.550711	0.797201	0.485343	-0.359043	-0.059238	0.654741	0.753528
10846		4.809939	-4.137214	6.746460	0.148513	-0.221149	-0.127360	0.999993	0.001856	-0.002764	-0.001592	0.600408	-0.575434	0.555325	0.796996	0.487573	-0.356469	-0.065637	0.656618	0.751362
10847		5.864601	-3.365977	7.858685	0.313188	-0.251862	-0.236995	0.999983	0.003915	-0.003148	-0.002962	0.599952	-0.569620	0.561774	0.796368	0.492364	-0.351248	-0.076520	0.658111	0.749022
10848		5.378082	-3.646581	7.370403	0.246190	-0.150180	-0.181344	0.999991	0.003077	-0.001877	-0.002267	0.597876	-0.567680	0.565936	0.797165	0.495145	-0.345484	-0.084096	0.657702	0.748570
10849		5.344234	-3.581812	6.690504	0.417433	-0.164267	-0.238091	0.999980	0.005218	-0.002053	-0.002976	0.595095	-0.565999	0.570532	0.798021	0.500090	-0.336261	-0.094994	0.655404	0.749281
10850		5.304850	-3.539272	7.247754	0.832301	-0.268537	-0.418655	0.999927	0.010404	-0.003357	-0.005233	0.588748	-0.564100	0.578936	0.799968	0.509299	-0.317278	-0.115875	0.649927	0.751111
10851		6.200429	-2.633480	8.265901	0.685118	-0.122545	-0.352437	0.999952	0.008564	-0.001532	-0.004405	0.584799	-0.563000	0.583987	0.800308	0.517905	-0.302128	-0.132352	0.644054	0.753444
10852		5.863597	-2.543184	8.050124	0.411970	-0.073197	-0.204119	0.999983	0.005150	-0.000915	-0.002551	0.577220	-0.569020	0.585690	0.804832	0.517700	-0.290228	-0.138067	0.638908	0.756792
10853		5.781083	-2.427060	8.173132	0.259794	-0.108220	-0.121312	0.999993	0.003247	-0.001353	-0.001516	0.572853	-0.572126	0.586951	0.807332	0.517561	-0.283452	-0.141613	0.636241	0.758382
10854		5.853537	-2.497468	8.096052	0.122895	-0.167843	-0.067598	0.999996	0.001536	-0.002098	-0.000845	0.568028	-0.575104	0.588727	0.810610	0.514652	-0.279366	-0.142325	0.635916	0.758522
10855		5.967404	-2.948481	7.744102	0.049332	-0.231373	-0.046312	0.999995	0.000617	-0.002892	-0.000579	0.563450	-0.575502	0.592724	0.813420	0.511919	-0.276202	-0.144471	0.637759	0.756565
10856		5.943487	-3.284080	7.546478	0.052555	-0.211793	-0.141925	0.999995	0.000657	-0.002647	-0.001774	0.557929	-0.576644	0.596823	0.816893	0.508376	-0.272470	-0.146292	0.639559	0.754694
10857		6.015212	-3.244217	7.336320	0.095314	-0.087250	-0.267285	0.999993	0.001191	-0.001091	-0.003341	0.551274	-0.580747	0.599024	0.821257	0.504285	-0.266894	-0.147081	0.639085	0.754942
10858		5.501101	-4.352610	7.158759	0.195265	0.024620	-0.483555	0.999979	0.002441	0.000308	-0.006044	0.542097	-0.586930	0.601368	0.826681	0.500887	-0.256342	-0.150763	0.636101	0.756734
10859		6.301948	-5.398601	7.539318	0.279482	0.068431	-0.920225	0.999927	0.003493	0.000855	-0.011503	0.526099	-0.597331	0.605323	0.835909	0.494167	-0.238864	-0.156449	0.631661	0.759295
10860		7.533333	-5.808371	7.563709	-0.363767	0.412473	-1.754283	0.999736	-0.004547	0.005155	-0.021927	0.495040	-0.621594	0.607089	0.856909	0.464818	-0.222827	-0.143678	0.630528	0.762752
10861		10.059187	-11.172960	5.757319	-0.884289	1.127256	-2.917894	0.999175	-0.011051	0.014087	-0.036464	0.443748	-0.664052	0.601766	0.888853	0.411669	-0.201170	-0.114141	0.624151	0.772922
10862		10.391817	-14.380225	2.217157	0.109838	1.077987	-2.539972	0.999404	0.001373	0.013472	-0.031743	0.407427	-0.691370	0.596666	0.906274	0.386625	-0.170848	-0.112566	0.610351	0.784092
10863		5.154427	-10.645302	4.262029	0.376292	-0.237745	0.292155	0.999978	0.004704	-0.002972	0.003652	0.434549	-0.666283	0.605998	0.891202	0.415294	-0.182455	-0.130100	0.619353	0.774258
10864		2.798948	-4.092674	8.113835	0.850575	-0.773746	1.976030	0.999592	0.010631	-0.009671	0.024697	0.489084	-0.618340	0.615184	0.858047	0.467777	-0.211989	-0.156687	0.631538	0.759348
10865		3.028533	-1.076979	9.047425	0.658451	-0.385486	2.026531	0.999634	0.008230	-0.004818	0.025329	0.533551	-0.585285	0.610545	0.830089	0.500734	-0.245392	-0.162097	0.637736	0.753006
10866		3.402283	0.737389	8.711074	0.013052	0.044358	1.491569	0.999826	0.000163	0.000554	0.018644	0.555801	-0.576604	0.598843	0.819832	0.499501	-0.279955	-0.137699	0.646550	0.750341
10867		4.149518	-0.232327	8.557926	-0.570830	0.236492	0.985754	0.999894	-0.007135	0.002956	0.012321	0.582560	-0.564334	0.584937	0.804253	0.504251	-0.314496	-0.117474	0.653650	0.747624
10868		3.698486	-1.428667	9.100116	-0.453026	0.315419	0.982163	0.999901	-0.005663	0.003943	0.012277	0.608950	-0.553099	0.568561	0.786603	0.513391	-0.343053	-0.102152	0.656134	0.747699
10869		4.447449	-1.330391	8.553469	-0.242333	0.196075	1.593035	0.999794	-0.003029	0.002451	0.019912	0.644267	-0.533856	0.547648	0.759277	0.532375	-0.374266	-0.091750	0.656944	0.748336
10870		6.364325	0.925102	8.981826	-0.225774	-0.071120	1.973823	0.999691	-0.002822	-0.000889	0.024670	0.683294	-0.505768	0.526600	0.725095	0.554707	-0.408090	-0.085710	0.660681	0.745758
10871		6.704824	1.787227	9.464228	-0.640632	-0.179346	1.661875	0.999750	-0.008007	-0.002242	0.020772	0.713138	-0.481221	0.509765	0.697052	0.564059	-0.442669	-0.074516	0.671017	0.737688
10872		7.052221	1.056513	8.142162	-0.885328	-0.091627	0.989508	0.999862	-0.011066	-0.001145	0.012368	0.728829	-0.469463	0.498410	0.682241	0.559518	-0.470624	-0.057929	0.683040	0.728080
10873		6.189767	1.226040	6.375841	-0.595069	-0.214521	0.143292	0.999967	-0.007438	-0.002681	0.001791	0.728508	-0.468539	0.499747	0.683279	0.549226	-0.481124	-0.049048	0.691970	0.720259
10874		4.019787	0.775208	5.144031	-0.055002	-1.162536	-0.093065	0.999894	-0.000687	-0.014531	-0.001163	0.721850	-0.454870	0.521561	0.688805	0.545127	-0.477895	-0.066937	0.704223	0.706817
10875		10.025699	-2.787880	7.198641	1.198020	-1.797576	-0.806969	0.999585	0.014973	-0.022467	-0.010086	0.699783	-0.440037	0.562736	0.704611	0.554849	-0.442341	-0.117588	0.706052	0.698329
10876		12.180787	6.989147	11.112906	1.285458	-0.309748	-1.152073	0.999760	0.016067	-0.003872	-0.014400	0.674135	-0.455557	0.581386	0.724270	0.562063	-0.399397	-0.144827	0.690328	0.708853
10877		5.516099	-5.112960	6.024345	0.979256	-0.008829	-0.575226	0.999899	0.012240	-0.000110	-0.007190	0.656934	-0.470569	0.589068	0.736341	0.568310	-0.367187	-0.161987	0.674972	0.719842
10878		6.219077	-0.867961	9.762959	0.548493	-0.093161	-0.399717	0.999963	0.006856	-0.001165	-0.004996	0.643458	-0.480343	0.596014	0.745622	0.569502	-0.346000	-0.173232	0.667037	0.724605
10879		7.359378	-1.806301	7.343976	0.165667	0.058542	-0.159163	0.999996	0.002071	0.000732	-0.001990	0.634846	-0.489635	0.597685	0.752636	0.566777	-0.335116	-0.174670	0.662587	0.728333
10880		6.214133	-2.568236	7.169301	0.165735	0.222380	-0.015615	0.999994	0.002072	0.002780	-0.000195	0.629859	-0.499040	0.595178	0.756997	0.565962	-0.326563	-0.173880	0.656236	0.734248
10881		5.855854	-3.370643	7.668572	0.108437	0.233387	-0.040139	0.999995	0.001355	0.002917	-0.000502	0.624860	-0.508397	0.592522	0.761544	0.564131	-0.319070	-0.172046	0.650606	0.739670
10882		6.224933	-2.239029	7.754704	0.068029	0.186943	-0.068495	0.999997	0.000850	0.002337	-0.000856	0.619617	-0.516849	0.590714	0.766217	0.561542	-0.312382	-0.170256	0.646172	0.743959
10883		6.248605	-1.810881	7.698661	0.024232	0.160951	0.023619	0.999998	0.000303	0.002012	0.000295	0.616280	-0.523262	0.588554	0.769373	0.559579	-0.308116	-0.168117	0.642703	0.747442
10884		6.032969	-2.521786	7.683434	-0.008316	0.159333	0.095786	0.999997	-0.000104	0.001992	0.001197	0.614510	-0.528402	0.585807	0.771365	0.558166	-0.305691	-0.165449	0.639721	0.750589
10885		5.893718	-2.941477	7.626376	-0.004997	0.133270	0.032544	0.999999	-0.000062	0.001666	0.000407	0.611708	-0.533691	0.583942	0.774046	0.556161	-0.302551	-0.163297	0.637071	0.753310
10886		5.975645	-2.384256	7.619701	0.003666	0.110724	0.005970	0.999999	0.000046	0.001384	0.000075	0.608639	-0.538642	0.582601	0.776796	0.554149	-0.299177	-0.161698	0.634653	0.755691
10887		5.967439	-2.435922	7.606699	0.007932	0.098939	0.013885	0.999999	0.000099	0.001237	0.000174	0.605903	-0.543047	0.581361	0.779199	0.552453	-0.296049	-0.160406	0.632373	0.757875
10888		6.017691	-2.560447	7.504426	0.010610	0.090495	0.022719	0.999999	0.000133	0.001131	0.000284	0.603528	-0.546960	0.580163	0.781259	0.551060	-0.293200	-0.159336	0.630212	0.759898
10889		5.911650	-2.695999	7.594302	0.032547	0.105153	0.013734	0.999999	0.000407	0.001314	0.000172	0.601263	-0.550974	0.578714	0.783167	0.550040	-0.290008	-0.158529	0.627601	0.762224
10890		5.785510	-2.563581	7.747864	0.023369	0.082486	0.005805	0.999999	0.000292	0.001031	0.000073	0.598979	-0.554511	0.577704	0.785039	0.548907	-0.287080	-0.157917	0.625475	0.764096
10891		5.925544	-2.585269	7.594428	0.014642	0.074814	0.000567	1.000000	0.000183	0.000935	0.000007	0.596746	-0.557831	0.576818	0.786871	0.547672	-0.284411	-0.157254	0.623603	0.765762
10892		5.894653	-2.436090	7.713553	-0.010180	0.076418	0.005200	1.000000	-0.000127	0.000955	0.000065	0.594790	-0.560925	0.575837	0.788578	0.546231	-0.282447	-0.156108	0.622089	0.767226
10893		5.901937	-2.419109	7.755072	-0.017477	0.055462	0.029415	1.000000	-0.000218	0.000693	0.000368	0.593374	-0.563222	0.575055	0.789834	0.545108	-0.281103	-0.155144	0.620997	0.768305
10894		5.794494	-2.625402	7.661467	-0.002867	0.040167	0.031359	1.000000	-0.000036	0.000502	0.000392	0.592068	-0.565132	0.574527	0.790899	0.544324	-0.279623	-0.154705	0.619949	0.769240
10895		5.780764	-2.575683	7.613105	0.012165	0.043778	0.038641	1.000000	0.000152	0.000547	0.000483	0.591070	-0.566863	0.573849	0.791682	0.543970	-0.278092	-0.154516	0.618678	0.770300
10896		5.889286	-2.451969	7.786690	0.009782	0.040296	0.038773	1.000000	0.000122	0.000504	0.000485	0.590195	-0.568415	0.573214	0.792369	0.543667	-0.276728	-0.154341	0.617520	0.771264
10897		5.818313	-2.641763	7.660602	-0.012961	0.030715	0.049886	1.000000	-0.000162	0.000384	0.000624	0.589609	-0.569572	0.572668	0.792898	0.543237	-0.276053	-0.153862	0.616831	0.771910
10898		5.688053	-2.503296	7.686220	0.013134	0.042359	0.036711	1.000000	0.000164	0.000529	0.000459	0.588927	-0.570977	0.571970	0.793429	0.543101	-0.274793	-0.153737	0.615651	0.772877
10899		5.791818	-2.502226	7.709595	0.042632	0.046536	0.007311	1.000000	0.000533	0.000582	0.000091	0.587774	-0.572765	0.571369	0.794207	0.543056	-0.272628	-0.154133	0.614029	0.774088
10900		5.882382	-2.681775	7.534160	0.067589	0.074437	0.001620	0.999999	0.000845	0.000930	0.000020	0.586705	-0.574974	0.570247	0.794902	0.543364	-0.269975	-0.154623	0.611687	0.775842
10901		5.694408	-2.511220	7.732637	0.084410	0.102865	0.001628	0.999999	0.001055	0.001286	0.000020	0.585854	-0.577501	0.568566	0.795445	0.543998	-0.267084	-0.155057	0.608735	0.778074
10902		5.699469	-2.507041	7.861087	0.073479	0.086965	-0.015628	0.999999	0.000918	0.001087	-0.000195	0.584677	-0.579950	0.567284	0.796222	0.544256	-0.264227	-0.155510	0.606171	0.779983
10903		5.696801	-2.596937	7.750564	0.071844	0.076443	-0.024525	0.999999	0.000898	0.000956	-0.000307	0.583353	-0.582300	0.566239	0.797081	0.544394	-0.261336	-0.156081	0.603790	0.781714
10904		5.676589	-2.533985	7.813569	0.077662	0.067844	-0.039377	0.999999	0.000971	0.000848	-0.000492	0.581776	-0.584651	0.565437	0.798072	0.544444	-0.258190	-0.156898	0.601469	0.783338
10905		5.793938	-2.410598	7.866208	0.053578	0.041685	-0.032221	1.000000	0.000670	0.000521	-0.000403	0.580307	-0.586452	0.565081	0.799000	0.544270	-0.255675	-0.157615	0.599870	0.784419
10906		5.741939	-2.455873	7.767406	0.028509	0.043710	-0.014078	1.000000	0.000356	0.000546	-0.000176	0.579263	-0.587986	0.564559	0.799719	0.544018	-0.253955	-0.157808	0.598595	0.785354
10907		5.674513	-2.571756	7.789172	0.041691	0.046923	-0.022826	1.000000	0.000521	0.000587	-0.000285	0.578114	-0.589632	0.564020	0.800468	0.543872	-0.251903	-0.158224	0.597108	0.786401
10908		5.799366	-2.402829	7.899888	0.033248	0.027773	-0.020888	1.000000	0.000416	0.000347	-0.000261	0.576991	-0.590911	0.563831	0.801174	0.543664	-0.250099	-0.158748	0.596032	0.787112
10909		5.754659	-2.423249	7.903286	-0.018704	-0.001129	0.013976	1.000000	-0.000234	-0.000014	0.000175	0.576496	-0.591244	0.563988	0.801550	0.543226	-0.249848	-0.158651	0.596101	0.787079
10910		5.711234	-2.316175	7.897457	-0.050972	-0.029377	0.048844	1.000000	-0.000637	-0.000367	0.000611	0.576632	-0.590647	0.564474	0.801519	0.542850	-0.250763	-0.158312	0.597035	0.786439
10911		5.877191	-2.529161	7.882238	-0.111507	-0.055232	0.084717	0.999998	-0.001394	-0.000690	0.001059	0.577418	-0.589151	0.565233	0.801186	0.542115	-0.253402	-0.157129	0.599176	0.785047
10912		5.764627	-2.702665	7.653558	-0.155655	-0.053582	0.131091	0.999997	-0.001946	-0.000670	0.001639	0.579185	-0.587009	0.565655	0.800316	0.541422	-0.257598	-0.155045	0.601899	0.783376
10913		5.691255	-2.739563	7.839365	-0.180198	-0.084403	0.177371	0.999994	-0.002252	-0.001055	0.002217	0.581813	-0.583721	0.566359	0.798815	0.541055	-0.262971	-0.152930	0.605416	0.781078
10914		5.494812	-2.432532	7.744513	-0.163204	-0.091094	0.160271	0.999995	-0.002040	-0.001139	0.002003	0.584116	-0.580527	0.567272	0.797453	0.540693	-0.267804	-0.151252	0.608802	0.778770
10915		5.785088	-2.390404	7.681670	-0.126369	-0.056720	0.119478	0.999997	-0.001580	-0.000709	0.001493	0.585753	-0.578399	0.567758	0.796526	0.540288	-0.271358	-0.149799	0.611183	0.777185
10916		5.812939	-3.121721	7.470961	-0.105680	-0.069418	0.177191	0.999996	-0.001321	-0.000868	0.002215	0.588505	-0.575275	0.568085	0.794653	0.541031	-0.275339	-0.148956	0.613469	0.775544
10917		5.252187	-2.202200	7.860385	-0.053408	-0.056362	0.118403	0.999998	-0.000668	-0.000705	0.001480	0.590193	-0.573081	0.568551	0.793397	0.541759	-0.277521	-0.148976	0.614878	0.774423
10918		5.500635	-2.929810	7.336833	0.051230	0.000074	-0.050829	1.000000	0.000640	0.000001	-0.000635	0.588719	-0.574081	0.569070	0.794260	0.541645	-0.275269	-0.150207	0.614045	0.774846
10919		5.604542	-3.069437	7.358836	0.195015	0.033214	-0.120100	0.999996	0.002438	0.000415	-0.001501	0.586033	-0.576491	0.569406	0.795554	0.542755	-0.269277	-0.153812	0.610799	0.776702
10920		5.837954	-2.410535	7.886189	0.213658	0.039348	-0.109417	0.999995	0.002671	0.000492	-0.001368	0.583632	-0.578804	0.569526	0.796556	0.544310	-0.263108	-0.157711	0.607218	0.778726
10921		5.897809	-2.453017	7.956154	0.122410	-0.006279	-0.036637	0.999999	0.001530	-0.000078	-0.000458	0.582506	-0.579430	0.570042	0.796830	0.545520	-0.259748	-0.160463	0.605532	0.779476
10922		6.114695	-2.517591	8.006761	-0.035756	-0.035701	0.039475	1.000000	-0.000447	-0.000446	0.000493	0.582786	-0.578566	0.570632	0.796619	0.545441	-0.260562	-0.160494	0.606428	0.778772
10923		5.722530	-2.710047	7.702070	-0.110502	-0.051303	0.077311	0.999998	-0.001381	-0.000641	0.000966	0.583772	-0.576932	0.571280	0.796142	0.544784	-0.263378	-0.159273	0.608572	0.777349
10924		5.764010	-2.672743	7.633942	-0.086855	-0.060070	0.076330	0.999999	-0.001086	-0.000751	0.000954	0.584726	-0.575157	0.572093	0.795566	0.544478	-0.265740	-0.158650	0.610523	0.775946
10925		5.752988	-2.814780	7.551079	-0.058541	-0.087686	0.085122	0.999999	-0.000732	-0.001096	0.001064	0.585764	-0.572819	0.573375	0.794733	0.544738	-0.267696	-0.158998	0.612486	0.774326
10926		5.796338	-2.646812	7.670940	-0.041102	-0.163788	0.159763	0.999996	-0.000514	-0.002047	0.001997	0.587999	-0.568264	0.575615	0.792714	0.546336	-0.270410	-0.160815	0.615299	0.771716
10927		5.286514	-2.516639	7.722520	-0.011144	-0.138998	0.089579	0.999998	-0.000139	-0.001737	0.001120	0.588943	-0.565025	0.577834	0.791593	0.547393	-0.271553	-0.162868	0.617339	0.769653
10928		5.815988	-2.932930	7.418589	0.067406	-0.058068	-0.014441	0.999999	0.000843	-0.000726	-0.000181	0.588149	-0.564476	0.579178	0.791689	0.548175	-0.269692	-0.165256	0.617148	0.769298
10929		5.938094	-2.750700	7.512613	0.092313	-0.006913	-0.031651	0.999999	0.001154	-0.000086	-0.000396	0.587250	-0.564925	0.579653	0.791908	0.549115	-0.267124	-0.167391	0.615900	0.769836
10930		5.787116	-2.659633	7.618676	0.134720	0.017079	-0.033849	0.999998	0.001684	0.000213	-0.000423	0.586426	-0.565752	0.579680	0.791958	0.550686	-0.263719	-0.170022	0.613734	0.770989
10931		5.804829	-2.680750	7.576210	0.158915	0.037325	-0.047587	0.999998	0.001986	0.000467	-0.000595	0.585429	-0.567071	0.579399	0.792086	0.552430	-0.259655	-0.172835	0.610943	0.772578
10932		5.654678	-2.728941	7.632599	0.192137	0.057145	-0.071049	0.999996	0.002402	0.000714	-0.000888	0.584070	-0.569003	0.578876	0.792389	0.554340	-0.254613	-0.176018	0.607407	0.774645
10933		5.699829	-2.579425	7.724655	0.192675	0.061515	-0.092317	0.999996	0.002408	0.000769	-0.001154	0.582326	-0.571288	0.578383	0.792971	0.555937	-0.249260	-0.179146	0.603791	0.776752
10934		5.954498	-2.732588	7.582118	0.183064	0.093852	-0.101604	0.999996	0.002288	0.001173	-0.001270	0.580555	-0.574183	0.577295	0.793709	0.557235	-0.243960	-0.181611	0.599836	0.779239
10935		5.810242	-2.510836	7.754390	0.132071	0.103117	-0.084303	0.999997	0.001651	0.001289	-0.001054	0.579194	-0.576945	0.575907	0.794396	0.558011	-0.239913	-0.182946	0.596455	0.781519
10936		5.823996	-2.312254	7.920460	0.060392	0.045795	-0.054644	0.999999	0.000755	0.000572	-0.000683	0.578171	-0.578425	0.575450	0.794970	0.558141	-0.237701	-0.183690	0.594897	0.782531
10937		5.734577	-2.440568	7.779379	0.038764	0.027841	-0.048283	1.000000	0.000485	0.000348	-0.000604	0.577192	-0.579551	0.575300	0.795548	0.558036	-0.236004	-0.184262	0.593899	0.783155
10938		5.940441	-2.487068	7.661655	0.034952	0.033345	-0.051627	1.000000	0.000437	0.000417	-0.000645	0.576179	-0.580800	0.575055	0.796186	0.557828	-0.234342	-0.184676	0.592874	0.783834
10939		5.790231	-2.463970	7.717181	0.052460	0.059637	-0.056722	0.999999	0.000656	0.000745	-0.000709	0.575200	-0.582490	0.574326	0.796803	0.557813	-0.232272	-0.185070	0.591227	0.784984
10940		5.873567	-2.334273	7.763600	0.042949	0.062526	-0.051771	0.999999	0.000537	0.000782	-0.000647	0.574343	-0.584142	0.573505	0.797382	0.557732	-0.230470	-0.185235	0.589672	0.786114
10941		5.802098	-2.533985	7.695780	0.057192	0.063376	-0.055508	0.999999	0.000715	0.000792	-0.000694	0.573422	-0.585847	0.572687	0.797941	0.557809	-0.228338	-0.185679	0.587905	0.787332
10942		5.793445	-2.230371	7.809086	0.072834	0.085416	-0.057157	0.999999	0.000910	0.001068	-0.000714	0.572584	-0.587883	0.571438	0.798440	0.558094	-0.225886	-0.186122	0.585598	0.788945
10943		5.765409	-2.322723	7.881375	0.052649	0.061969	-0.040335	0.999999	0.000658	0.000775	-0.000504	0.571976	-0.589334	0.570551	0.798787	0.558328	-0.224074	-0.186500	0.583914	0.790102
10944		5.684391	-2.261878	7.905579	0.019143	0.029124	-0.028140	1.000000	0.000239	0.000364	-0.000352	0.571464	-0.590131	0.570241	0.799112	0.558251	-0.223103	-0.186678	0.583182	0.790601
10945		5.839548	-2.239711	7.822128	-0.015761	0.000642	-0.004337	1.000000	-0.000197	0.000008	-0.000054	0.571295	-0.590182	0.570357	0.799260	0.558015	-0.223165	-0.186560	0.583357	0.790500
10946		5.798295	-2.366136	7.771676	-0.007990	0.003462	0.001072	1.000000	-0.000100	0.000043	0.000013	0.571254	-0.590192	0.570388	0.799290	0.557977	-0.223152	-0.186561	0.583382	0.790481
10947		5.734825	-2.352927	7.838890	0.004154	0.008993	-0.009350	1.000000	0.000052	0.000112	-0.000117	0.571036	-0.590420	0.570370	0.799407	0.557967	-0.222759	-0.186726	0.583161	0.790605
10948		5.755606	-2.335775	7.783758	0.009118	0.009339	-0.014189	1.000000	0.000114	0.000117	-0.000177	0.570730	-0.590716	0.570370	0.799565	0.557961	-0.222204	-0.186985	0.582866	0.790761
10949		5.772343	-2.326686	7.765237	0.014516	0.024405	-0.014619	1.000000	0.000181	0.000305	-0.000183	0.570492	-0.591232	0.570073	0.799699	0.558032	-0.221543	-0.187135	0.582276	0.791161
10950		5.733504	-2.288237	7.809119	0.014841	0.032642	-0.010211	1.000000	0.000186	0.000408	-0.000128	0.570386	-0.591800	0.569590	0.799765	0.558175	-0.220943	-0.187178	0.581561	0.791676
10951		5.699553	-2.332193	7.831999	0.014670	0.032623	-0.010892	1.000000	0.000183	0.000408	-0.000136	0.570268	-0.592374	0.569111	0.799841	0.558305	-0.220342	-0.187212	0.580852	0.792189
10952		5.758258	-2.302568	7.845909	0.012284	0.023537	-0.011293	1.000000	0.000154	0.000294	-0.000141	0.570104	-0.592819	0.568811	0.799931	0.558394	-0.219787	-0.187327	0.580311	0.792558
10953		5.716774	-2.258000	7.867745	0.006994	0.012129	-0.011185	1.000000	0.000087	0.000152	-0.000140	0.569897	-0.593092	0.568735	0.800039	0.558414	-0.219344	-0.187499	0.580013	0.792735
10954		5.754146	-2.293738	7.795223	0.003944	0.014107	-0.005170	1.000000	0.000049	0.000176	-0.000065	0.569820	-0.593308	0.568586	0.800074	0.558480	-0.219048	-0.187581	0.579729	0.792923
10955		5.741317	-2.300444	7.792637	0.009877	0.023912	-0.000638	1.000000	0.000123	0.000299	-0.000008	0.569883	-0.593599	0.568219	0.800015	0.558699	-0.218704	-0.187641	0.579220	0.793282
10956		5.734464	-2.334195	7.822060	0.016196	0.024534	-0.007939	1.000000	0.000202	0.000307	-0.000099	0.569806	-0.593998	0.567880	0.800029	0.558901	-0.218136	-0.187817	0.578616	0.793681
10957		5.670466	-2.326452	7.836335	0.021626	0.028809	-0.013890	1.000000	0.000270	0.000360	-0.000174	0.569639	-0.594534	0.567486	0.800095	0.559101	-0.217380	-0.188042	0.577871	0.794169
10958		5.710665	-2.284129	7.849065	0.018604	0.024141	-0.018619	1.000000	0.000233	0.000302	-0.000233	0.569358	-0.595068	0.567209	0.800241	0.559185	-0.216623	-0.188270	0.577240	0.794574
10959		5.685607	-2.261517	7.863966	0.017186	0.020450	-0.017948	1.000000	0.000215	0.000256	-0.000224	0.569072	-0.595537	0.567003	0.800385	0.559258	-0.215904	-0.188522	0.576686	0.794917
10960		5.745514	-2.291647	7.836230	0.016033	0.017611	-0.017250	1.000000	0.000200	0.000220	-0.000216	0.568790	-0.595956	0.566847	0.800524	0.559321	-0.215225	-0.188785	0.576192	0.795213
10961		5.669190	-2.260965	7.888164	0.012551	0.007448	-0.013172	1.000000	0.000157	0.000093	-0.000165	0.568542	-0.596166	0.566873	0.800618	0.559399	-0.214670	-0.189129	0.575898	0.795344
10962		5.724293	-2.245727	7.848105	0.000378	-0.000984	-0.008771	1.000000	0.000005	-0.000012	-0.000110	0.568344	-0.596197	0.567040	0.800712	0.559356	-0.214434	-0.189332	0.575908	0.795288
10963		5.732303	-2.262449	7.811927	-0.000786	0.006049	-0.006988	1.000000	-0.000010	0.000076	-0.000087	0.568238	-0.596287	0.567051	0.800761	0.559361	-0.214236	-0.189440	0.575810	0.795334
10964		5.695796	-2.304194	7.834033	0.000390	0.010539	-0.009663	1.000000	0.000005	0.000132	-0.000121	0.568081	-0.596490	0.566994	0.800863	0.559309	-0.213993	-0.189480	0.575650	0.795440
10965		5.729741	-2.275348	7.837340	-0.001385	0.006573	-0.008204	1.000000	-0.000017	0.000082	-0.000103	0.567939	-0.596611	0.567010	0.800947	0.559262	-0.213801	-0.189551	0.575570	0.795480
10966		5.714048	-2.278345	7.868526	0.003940	0.007046	-0.005974	1.000000	0.000049	0.000088	-0.000075	0.567825	-0.596717	0.567012	0.800991	0.559297	-0.213541	-0.189704	0.575426	0.795548
10967		5.716151	-2.282681	7.857250	0.001695	0.003276	-0.008653	1.000000	0.000021	0.000041	-0.000108	0.567664	-0.596793	0.567094	0.801065	0.559286	-0.213293	-0.189876	0.575357	0.795557
10968		5.713230	-2.260397	7.847045	-0.001148	0.005768	-0.006214	1.000000	-0.000014	0.000072	-0.000078	0.567560	-0.596873	0.567114	0.801122	0.559262	-0.213143	-0.189947	0.575299	0.795583
10969		5.707106	-2.240866	7.860495	-0.005141	0.005425	-0.003068	1.000000	-0.000064	0.000068	-0.000038	0.567521	-0.596895	0.567130	0.801143	0.559251	-0.213092	-0.189975	0.575286	0.795585
10970		5.717189	-2.295685	7.857877	-0.006352	-0.000819	-0.004144	1.000000	-0.000079	-0.000010	-0.000052	0.567426	-0.596852	0.567270	0.801199	0.559172	-0.213087	-0.190020	0.575408	0.795486
10971		5.728980	-2.266195	7.860852	-0.007213	-0.001148	-0.005383	1.000000	-0.000090	-0.000014	-0.000067	0.567323	-0.596811	0.567417	0.801263	0.559081	-0.213087	-0.190060	0.575539	0.795382
10972		5.745478	-2.201799	7.870218	-0.011651	-0.008245	-0.001428	1.000000	-0.000146	-0.000103	-0.000018	0.567315	-0.596581	0.567666	0.801243	0.559063	-0.213209	-0.190164	0.575796	0.795171
10973		5.730159	-2.303955	7.827216	-0.011380	-0.005886	0.004469	1.000000	-0.000142	-0.000074	0.000056	0.567369	-0.596341	0.567864	0.801201	0.559039	-0.213429	-0.190182	0.576067	0.794970
10974		5.714148	-2.308946	7.824103	-0.005785	-0.000181	-0.000653	1.000000	-0.000072	-0.000002	-0.000008	0.567356	-0.596246	0.567977	0.801195	0.559038	-0.213458	-0.190247	0.576167	0.794882
10975		5.743895	-2.262304	7.838988	-0.002589	0.001837	-0.003409	1.000000	-0.000032	0.000023	-0.000043	0.567376	-0.596181	0.568025	0.801153	0.559116	-0.213408	-0.190363	0.576158	0.794861
10976		5.743528	-2.262521	7.839193	-0.002454	0.003016	-0.000459	1.000000	-0.000031	0.000038	-0.000006	0.567402	-0.596123	0.568060	0.801123	0.559156	-0.213416	-0.190412	0.576178	0.794834
10977		5.717723	-2.309483	7.833156	-0.001731	0.003574	-0.002015	1.000000	-0.000022	0.000045	-0.000025	0.567329	-0.596134	0.568121	0.801173	0.559092	-0.213396	-0.190420	0.576229	0.794796
10978		5.721188	-2.246514	7.850144	-0.003735	-0.002409	-0.002860	1.000000	-0.000047	-0.000030	-0.000036	0.567352	-0.595982	0.568257	0.801107	0.559208	-0.213340	-0.190627	0.576273	0.794714
10979		5.763384	-2.259351	7.816835	-0.009663	-0.008149	0.000915	1.000000	-0.000121	-0.000102	0.000011	0.567296	-0.595763	0.568544	0.801119	0.559153	-0.213438	-0.190745	0.576554	0.794482
10980		5.743694	-2.307308	7.817850	-0.006672	-0.002165	0.000074	1.000000	-0.000083	-0.000027	0.000001	0.567232	-0.595668	0.568706	0.801172	0.559030	-0.213563	-0.190711	0.576771	0.794333
10981		5.738062	-2.253642	7.828794	-0.003075	0.000474	0.000139	1.000000	-0.000038	0.000006	0.000002	0.567240	-0.595569	0.568802	0.801144	0.559068	-0.213567	-0.190805	0.576836	0.794263
10982		5.731936	-2.303371	7.812415	0.000290	0.001100	-0.002098	1.000000	0.000004	0.000014	-0.000026	0.567182	-0.595496	0.568937	0.801129	0.559152	-0.213403	-0.191041	0.576831	0.794210
10983		5.744649	-2.273789	7.848744	0.001995	0.004479	-0.005029	1.000000	0.000025	0.000056	-0.000063	0.567058	-0.595554	0.568999	0.801198	0.559107	-0.213264	-0.191122	0.576814	0.794203
10984		5.742344	-2.271751	7.817062	0.000550	0.003362	-0.001918	1.000000	0.000007	0.000042	-0.000024	0.567022	-0.595532	0.569058	0.801204	0.559119	-0.213207	-0.191199	0.576825	0.794176
10985		5.737042	-2.279361	7.820538	0.000047	0.004723	-0.003780	1.000000	0.000001	0.000059	-0.000047	0.566952	-0.595543	0.569117	0.801227	0.559136	-0.213080	-0.191316	0.576798	0.794168
10986		5.747633	-2.256633	7.836099	-0.002426	0.003262	-0.002582	1.000000	-0.000030	0.000041	-0.000032	0.566906	-0.595524	0.569183	0.801247	0.559120	-0.213045	-0.191368	0.576832	0.794130
10987		5.731385	-2.287311	7.824176	-0.002855	0.002394	-0.003279	1.000000	-0.000036	0.000030	-0.000041	0.566840	-0.595534	0.569239	0.801314	0.558995	-0.213121	-0.191281	0.576944	0.794070
10988		5.749943	-2.255104	7.812733	-0.003978	0.001214	-0.004544	1.000000	-0.000050	0.000015	-0.000057	0.566910	-0.595438	0.569268	0.801250	0.559074	-0.213156	-0.191342	0.576966	0.794039
10989		5.743122	-2.285125	7.817766	-0.004273	0.001523	-0.002292	1.000000	-0.000053	0.000019	-0.000029	0.566828	-0.595388	0.569403	0.801285	0.559040	-0.213110	-0.191436	0.577051	0.793955
10990		5.739840	-2.271819	7.818881	-0.001212	0.006688	-0.001810	1.000000	-0.000015	0.000084	-0.000023	0.566746	-0.595451	0.569418	0.801361	0.558928	-0.213118	-0.191363	0.577094	0.793942
10991		5.726890	-2.274517	7.826029	-0.002264	0.004687	-0.001755	1.000000	-0.000028	0.000059	-0.000022	0.566676	-0.595501	0.569435	0.801455	0.558742	-0.213253	-0.191175	0.577223	0.793893
10992		5.747917	-2.291104	7.815876	-0.001832	0.004146	-0.001213	1.000000	-0.000023	0.000052	-0.000015	0.566688	-0.595476	0.569449	0.801449	0.558738	-0.213287	-0.191166	0.577252	0.793874
10993		5.744389	-2.277725	7.817194	-0.001141	0.005867	-0.000490	1.000000	-0.000014	0.000073	-0.000006	0.566756	-0.595476	0.569383	0.801410	0.558779	-0.213327	-0.191128	0.577213	0.793911
10994		5.759379	-2.274458	7.820565	0.002284	0.009901	-0.000941	1.000000	0.000029	0.000124	-0.000012	0.567004	-0.595444	0.569168	0.801228	0.559036	-0.213338	-0.191154	0.576997	0.794062
10995		5.757260	-2.281436	7.833728	0.003074	0.011049	-0.001021	1.000000	0.000038	0.000138	-0.000013	0.567112	-0.595517	0.568984	0.801185	0.559071	-0.213406	-0.191016	0.576887	0.794175
10996		5.741117	-2.289514	7.821338	0.004388	0.013900	-0.001053	1.000000	0.000055	0.000174	-0.000013	0.567028	-0.595670	0.568908	0.801273	0.558957	-0.213374	-0.190894	0.576840	0.794238
10997		5.754582	-2.265709	7.846938	0.001952	0.009868	-0.002289	1.000000	0.000024	0.000123	-0.000029	0.567016	-0.595743	0.568845	0.801308	0.558891	-0.213413	-0.190783	0.576829	0.794274
10998		5.741920	-2.280371	7.821621	-0.000814	0.007307	0.001006	1.000000	-0.000010	0.000091	0.000013	0.566809	-0.595782	0.569009	0.801439	0.558746	-0.213303	-0.190849	0.576928	0.794186
10999		5.745284	-2.299433	7.810331	0.005085	0.012801	-0.000641	1.000000	0.000064	0.000160	-0.000008	0.567091	-0.595797	0.568711	0.801225	0.559078	-0.213237	-0.190908	0.576591	0.794416
11000		5.723092	-2.295291	7.822832	0.005892	0.018422	-0.002384	1.000000	0.000074	0.000230	-0.000030	0.567541	-0.595805	0.568255	0.800830	0.559763	-0.212923	-0.191228	0.575919	0.794827
11001		5.763923	-2.257223	7.833919	0.008967	0.017948	-0.002521	1.000000	0.000112	0.000224	-0.000032	0.567571	-0.596025	0.567995	0.800864	0.559710	-0.212935	-0.190998	0.575742	0.795010
11002		5.709977	-2.305983	7.810854	0.007815	0.016520	-0.001666	1.000000	0.000098	0.000207	-0.000021	0.567763	-0.596122	0.567701	0.800727	0.559943	-0.212839	-0.191002	0.575416	0.795245
11003		5.721799	-2.261638	7.858666	0.003885	0.015255	-0.002929	1.000000	0.000049	0.000191	-0.000037	0.567463	-0.596388	0.567722	0.800979	0.559621	-0.212736	-0.190836	0.575453	0.795258
11004		5.724053	-2.245612	7.846265	-0.001193	0.011253	0.002235	1.000000	-0.000015	0.000141	0.000028	0.567768	-0.596352	0.567453	0.800813	0.559763	-0.212986	-0.190625	0.575351	0.795383
11005		5.723002	-2.301255	7.827947	-0.000767	0.012121	0.002931	1.000000	-0.000010	0.000152	0.000037	0.567936	-0.596336	0.567302	0.800710	0.559878	-0.213073	-0.190557	0.575256	0.795467
11006		5.727123	-2.286937	7.847549	0.001222	0.010714	-0.000590	1.000000	0.000015	0.000134	-0.000007	0.568000	-0.596360	0.567213	0.800670	0.559936	-0.213071	-0.190536	0.575175	0.795531
11007		5.725236	-2.278919	7.837654	0.002181	0.010468	-0.000151	1.000000	0.000027	0.000131	-0.000002	0.567561	-0.596613	0.567387	0.801063	0.559340	-0.213157	-0.190190	0.575492	0.795384
11008		5.720531	-2.264958	7.839965	0.001915	0.011025	-0.000024	1.000000	0.000024	0.000138	-0.000000	0.567451	-0.596629	0.567480	0.801086	0.559402	-0.212908	-0.190422	0.575415	0.795385
11009		5.718937	-2.292223	7.831757	0.001547	0.012154	0.000905	1.000000	0.000019	0.000152	0.000011	0.567494	-0.596545	0.567526	0.800991	0.559610	-0.212721	-0.190695	0.575301	0.795402
11010		5.727672	-2.269461	7.848649	0.001648	0.011580	0.000103	1.000000	0.000021	0.000145	0.000001	0.567388	-0.596887	0.567270	0.801268	0.559020	-0.213228	-0.189842	0.575519	0.795448
11011		5.720872	-2.269633	7.841752	0.001812	0.011596	0.000775	1.000000	0.000023	0.000145	0.000010	0.567258	-0.596895	0.567393	0.801306	0.559057	-0.212990	-0.190072	0.575475	0.795425
11012		5.718488	-2.277283	7.854858	0.000295	0.009891	0.002410	1.000000	0.000004	0.000124	0.000030	0.567430	-0.596971	0.567141	0.801262	0.559022	-0.213245	-0.189744	0.575430	0.795536
11013		5.698584	-2.287149	7.832867	-0.002997	0.006942	0.000086	1.000000	-0.000037	0.000087	0.000001	0.567388	-0.596979	0.567175	0.801327	0.558876	-0.213385	-0.189594	0.575564	0.795475
11014		5.715402	-2.270343	7.845534	0.001458	0.008500	0.001247	1.000000	0.000018	0.000106	0.000016	0.567278	-0.597228	0.567022	0.801562	0.558380	-0.213798	-0.188928	0.575787	0.795472
11015		5.708975	-2.278313	7.849682	0.001458	0.008500	0.001247	1.000000	0.000018	0.000106	0.000016	0.566901	-0.597299	0.567324	0.801834	0.558010	-0.213744	-0.188903	0.576072	0.795272
11016		5.726586	-2.280909	7.841119	0.001924	0.008205	-0.000332	1.000000	0.000024	0.000103	-0.000004	0.566873	-0.597164	0.567494	0.801783	0.558149	-0.213576	-0.189206	0.576077	0.795196
11017		5.738626	-2.271573	7.856886	0.002252	0.008238	0.001014	1.000000	0.000028	0.000103	0.000013	0.566259	-0.597507	0.567747	0.802313	0.557364	-0.213631	-0.188796	0.576481	0.795000
11018		5.687392	-2.288067	7.862714	0.001396	0.007910	-0.000229	1.000000	0.000017	0.000099	-0.000003	0.566186	-0.597555	0.567769	0.802329	0.557418	-0.213430	-0.188948	0.576379	0.795039
11019		5.738374	-2.269327	7.835757	0.000863	0.009022	0.000026	1.000000	0.000011	0.000113	0.000000	0.565342	-0.598175	0.567958	0.803115	0.556220	-0.213602	-0.188138	0.576893	0.794857
11020		5.708172	-2.282647	7.852402	-0.000122	0.006205	0.001405	1.000000	-0.000002	0.000078	0.000018	0.565536	-0.597891	0.568063	0.802858	0.556675	-0.213380	-0.188648	0.576748	0.794842
11021		5.704051	-2.276769	7.865497	0.000606	0.006762	-0.000149	1.000000	0.000008	0.000085	-0.000002	0.564959	-0.598047	0.568472	0.803257	0.556177	-0.213180	-0.188679	0.577067	0.794603
11022		5.722170	-2.279665	7.856506	-0.000118	0.004797	0.001254	1.000000	-0.000001	0.000060	0.000016	0.565034	-0.598018	0.568429	0.803203	0.556245	-0.213206	-0.188685	0.577032	0.794627
11023		5.712306	-2.288796	7.851013	-0.003810	0.001324	0.001830	1.000000	-0.000048	0.000017	0.000023	0.564945	-0.598199	0.568327	0.803413	0.555771	-0.213650	-0.188054	0.577302	0.794581
11024		5.731030	-2.284524	7.830099	0.000508	0.005927	0.000500	1.000000	0.000006	0.000074	0.000006	0.564987	-0.597956	0.568541	0.803310	0.555950	-0.213574	-0.188372	0.577381	0.794448
11025		5.714715	-2.280809	7.849804	0.003078	0.009628	-0.001192	1.000000	0.000038	0.000120	-0.000015	0.565176	-0.598011	0.568294	0.803210	0.556056	-0.213670	-0.188226	0.577221	0.794599
11026		5.714490	-2.273699	7.872208	0.002812	0.010185	-0.001065	1.000000	0.000035	0.000127	-0.000013	0.565078	-0.597953	0.568453	0.803165	0.556284	-0.213245	-0.188711	0.577062	0.794599
11027		5.704028	-2.274197	7.856085	0.000775	0.005370	0.000372	1.000000	0.000010	0.000067	0.000005	0.564680	-0.598107	0.568686	0.803517	0.555724	-0.213382	-0.188408	0.577441	0.794396
11028		5.712456	-2.257783	7.851174	0.001672	0.004536	-0.000660	1.000000	0.000021	0.000057	-0.000008	0.564262	-0.598477	0.568712	0.803965	0.554968	-0.213661	-0.187745	0.577786	0.794302
11029		5.714089	-2.278771	7.862644	-0.000440	0.003356	-0.000245	1.000000	-0.000006	0.000042	-0.000003	0.563964	-0.598549	0.568932	0.804211	0.554584	-0.213733	-0.187591	0.578079	0.794125
11030		5.707193	-2.277955	7.822374	0.000769	0.006778	0.000522	1.000000	0.000010	0.000085	0.000007	0.564261	-0.598301	0.568899	0.803933	0.555003	-0.213691	-0.187889	0.577934	0.794160
11031		5.720729	-2.269707	7.870464	0.004303	0.008826	-0.000879	1.000000	0.000054	0.000110	-0.000011	0.563490	-0.598868	0.569066	0.804594	0.554071	-0.213622	-0.187372	0.578240	0.794059
11032		5.700892	-2.278140	7.848840	0.004994	0.009137	-0.000310	1.000000	0.000062	0.000114	-0.000004	0.562582	-0.599415	0.569388	0.805404	0.552826	-0.213796	-0.186620	0.578865	0.793781
11033		5.715704	-2.274173	7.852661	0.003083	0.008219	-0.001346	1.000000	0.000039	0.000103	-0.000017	0.562014	-0.600004	0.569330	0.806004	0.551842	-0.214073	-0.185735	0.579194	0.793748
11034		5.716856	-2.287192	7.853239	0.001134	0.007055	-0.000258	1.000000	0.000014	0.000088	-0.000003	0.561735	-0.600083	0.569521	0.806254	0.551419	-0.214222	-0.185494	0.579515	0.793571
11035		5.708553	-2.273736	7.846200	0.001504	0.005926	-0.001185	1.000000	0.000019	0.000074	-0.000015	0.561451	-0.600295	0.569578	0.806476	0.551139	-0.214108	-0.185389	0.579562	0.793561
11036		5.697211	-2.261482	7.862933	0.004940	0.007139	-0.001935	1.000000	0.000062	0.000089	-0.000024	0.560393	-0.601330	0.569528	0.807550	0.549406	-0.214514	-0.183908	0.580134	0.793487
11037		5.707643	-2.265561	7.869376	0.003577	0.006860	0.000523	1.000000	0.000045	0.000086	0.000007	0.560681	-0.600874	0.569726	0.807232	0.549894	-0.214459	-0.184426	0.580144	0.793360
11038		5.712099	-2.276872	7.846144	0.001504	0.005925	-0.001186	1.000000	0.000019	0.000074	-0.000015	0.560256	-0.600895	0.570121	0.807555	0.549390	-0.214537	-0.184304	0.580600	0.793055
11039		5.722913	-2.273659	7.840883	0.003251	0.006826	-0.000824	1.000000	0.000041	0.000085	-0.000010	0.559939	-0.601127	0.570188	0.807821	0.549014	-0.214497	-0.184101	0.580715	0.793017
11040		5.712537	-2.273436	7.824927	0.005828	0.009118	-0.002667	1.000000	0.000073	0.000114	-0.000033	0.559734	-0.601391	0.570111	0.808034	0.548683	-0.214540	-0.183788	0.580755	0.793061
11041		5.730676	-2.248556	7.859125	0.005456	0.010247	-0.001742	1.000000	0.000068	0.000128	-0.000022	0.559938	-0.601402	0.569899	0.807836	0.549072	-0.214293	-0.184039	0.580376	0.793280
11042		5.712901	-2.277897	7.848708	0.005613	0.011671	-0.000921	1.000000	0.000070	0.000146	-0.000012	0.559694	-0.601788	0.569731	0.808099	0.548675	-0.214316	-0.183625	0.580351	0.793395
11043		5.700737	-2.264991	7.866183	0.006884	0.009706	-0.002877	1.000000	0.000086	0.000121	-0.000036	0.559266	-0.602077	0.569847	0.808466	0.548133	-0.214320	-0.183315	0.580563	0.793311
11044		5.699142	-2.263491	7.867770	0.004081	0.008215	-0.003033	1.000000	0.000051	0.000103	-0.000038	0.559842	-0.601558	0.569828	0.807900	0.549041	-0.214128	-0.184049	0.580242	0.793376
11045		5.709323	-2.232064	7.872512	0.003669	0.004532	-0.004026	1.000000	0.000046	0.000057	-0.000050	0.560589	-0.600589	0.570117	0.807077	0.550383	-0.213788	-0.185384	0.579975	0.793260
11046		5.700418	-2.260097	7.845949	-0.000059	0.003978	0.002569	1.000000	-0.000001	0.000050	0.000032	0.560942	-0.600400	0.569969	0.806844	0.550628	-0.214039	-0.185332	0.579939	0.793299
11047		5.699088	-2.275531	7.869524	0.000841	0.003144	0.001540	1.000000	0.000011	0.000039	0.000019	0.560789	-0.600333	0.570189	0.806954	0.550435	-0.214117	-0.185311	0.580191	0.793119
11048		5.697114	-2.274256	7.837683	-0.000237	0.003615	-0.001702	1.000000	-0.000003	0.000045	-0.000021	0.560399	-0.600788	0.570094	0.807475	0.549433	-0.214727	-0.184223	0.580669	0.793023
11049		5.713103	-2.263515	7.829107	-0.000018	0.004222	0.000445	1.000000	-0.000000	0.000053	0.000006	0.560087	-0.601151	0.570018	0.807805	0.548899	-0.214852	-0.183724	0.580799	0.793044
11050		5.708986	-2.264956	7.853545	0.002623	0.005696	-0.000074	1.000000	0.000033	0.000071	-0.000001	0.559795	-0.601168	0.570287	0.807981	0.548697	-0.214706	-0.183841	0.580972	0.792890
11051		5.716931	-2.256111	7.860351	0.001194	0.006236	0.001058	1.000000	0.000015	0.000078	0.000013	0.559254	-0.601323	0.570654	0.808343	0.548253	-0.214477	-0.183893	0.581231	0.792688
11052		5.723178	-2.261331	7.857756	0.001672	0.004533	-0.000666	1.000000	0.000021	0.000057	-0.000008	0.559112	-0.601665	0.570432	0.808579	0.547803	-0.214736	-0.183286	0.581301	0.792777
11053		5.708585	-2.277514	7.855414	0.001248	0.003665	-0.001362	1.000000	0.000016	0.000046	-0.000017	0.559169	-0.601638	0.570405	0.808536	0.547861	-0.214751	-0.183300	0.581275	0.792793
11054		5.719028	-2.254784	7.870985	-0.000273	0.001964	0.000274	1.000000	-0.000003	0.000025	0.000003	0.558644	-0.602021	0.570515	0.809012	0.547123	-0.214842	-0.182802	0.581574	0.792689
11055		5.709304	-2.263678	7.865458	-0.002398	0.003599	0.000983	1.000000	-0.000030	0.000045	0.000012	0.557943	-0.602488	0.570708	0.809731	0.545846	-0.215378	-0.181756	0.582289	0.792404
11056		5.722527	-2.240200	7.857383	-0.003890	0.004956	0.000790	1.000000	-0.000049	0.000062	0.000010	0.558083	-0.602436	0.570626	0.809651	0.545914	-0.215507	-0.181683	0.582279	0.792428
11057		5.701081	-2.279477	7.848521	-0.000391	0.005351	0.001368	1.000000	-0.000005	0.000067	0.000017	0.557629	-0.602836	0.570648	0.810074	0.545256	-0.215581	-0.181189	0.582481	0.792393
11058		5.702946	-2.285190	7.837198	0.002566	0.005105	-0.001547	1.000000	0.000032	0.000064	-0.000019	0.557794	-0.602925	0.570392	0.809966	0.545439	-0.215528	-0.181167	0.582218	0.792591
11059		5.719530	-2.239945	7.859638	0.001081	0.005054	-0.001888	1.000000	0.000014	0.000063	-0.000024	0.558295	-0.602679	0.570161	0.809522	0.546162	-0.215363	-0.181606	0.581794	0.792802
11060		5.710163	-2.275485	7.844790	0.003151	0.005990	-0.000178	1.000000	0.000039	0.000075	-0.000002	0.558274	-0.602914	0.569935	0.809637	0.545909	-0.215573	-0.181161	0.581789	0.792908
11061		5.720951	-2.272001	7.839676	0.003983	0.007379	-0.002384	1.000000	0.000050	0.000092	-0.000030	0.557642	-0.603614	0.569812	0.810272	0.544897	-0.215745	-0.180262	0.582011	0.792949
11062		5.708606	-2.232515	7.866250	0.000398	0.006496	0.001285	1.000000	0.000005	0.000081	0.000016	0.557903	-0.603398	0.569786	0.810074	0.545138	-0.215884	-0.180348	0.582011	0.792930
11063		5.703605	-2.268330	7.859933	-0.000385	0.003944	0.001219	1.000000	-0.000005	0.000049	0.000015	0.557975	-0.603158	0.569969	0.809990	0.545227	-0.215971	-0.180498	0.582176	0.792775
11064		5.722219	-2.271199	7.850769	0.000882	0.003386	-0.000586	1.000000	0.000011	0.000042	-0.000007	0.557541	-0.603240	0.570307	0.810338	0.544666	-0.216082	-0.180277	0.582616	0.792502
11065		5.709581	-2.265774	7.846279	0.002032	0.006216	-0.001297	1.000000	0.000025	0.000078	-0.000016	0.556995	-0.603534	0.570529	0.810786	0.543997	-0.216085	-0.179952	0.582935	0.792341
11066		5.714752	-2.250973	7.865130	0.000081	0.005055	-0.000210	1.000000	0.000001	0.000063	-0.000003	0.555938	-0.604436	0.570605	0.811812	0.542304	-0.216487	-0.178589	0.583577	0.792176
11067		5.726795	-2.275724	7.849614	0.001839	0.003142	-0.000141	1.000000	0.000023	0.000039	-0.000002	0.556225	-0.604157	0.570621	0.811567	0.542643	-0.216557	-0.178809	0.583552	0.792145
11068		5.703406	-2.274179	7.883668	0.001137	0.005644	-0.000417	1.000000	0.000014	0.000071	-0.000005	0.555313	-0.604741	0.570890	0.812428	0.541178	-0.216995	-0.177727	0.584308	0.791832
11069		5.722283	-2.261375	7.851827	0.004008	0.004911	0.000918	1.000000	0.000050	0.000061	0.000011	0.554636	-0.605437	0.570811	0.813100	0.540078	-0.217220	-0.176769	0.584604	0.791827
11070		5.700282	-2.264024	7.841773	0.004412	0.006838	-0.001837	1.000000	0.000055	0.000085	-0.000023	0.554129	-0.606089	0.570611	0.813657	0.539119	-0.217517	-0.175793	0.584814	0.791890
11071		5.715672	-2.252541	7.833904	0.002187	0.007640	-0.000479	1.000000	0.000027	0.000095	-0.000006	0.555163	-0.605283	0.570462	0.812772	0.540440	-0.217547	-0.176623	0.584429	0.791989
11072		5.725152	-2.272018	7.863665	0.004722	0.009686	-0.000197	1.000000	0.000059	0.000121	-0.000002	0.554862	-0.605570	0.570449	0.813041	0.540037	-0.217540	-0.176328	0.584504	0.792000
11073		5.716495	-2.265696	7.868298	0.003424	0.004025	-0.000452	1.000000	0.000043	0.000050	-0.000006	0.554489	-0.605874	0.570489	0.813315	0.539719	-0.217309	-0.176242	0.584483	0.792034
11074		5.718518	-2.263189	7.845761	0.004728	0.008278	-0.000345	1.000000	0.000059	0.000103	-0.000004	0.553838	-0.606575	0.570378	0.813959	0.538669	-0.217502	-0.175313	0.584725	0.792062
11075		5.711031	-2.260900	7.806547	0.009421	0.011745	-0.002601	1.000000	0.000118	0.000147	-0.000033	0.554167	-0.606561	0.570072	0.813657	0.539252	-0.217187	-0.175675	0.584201	0.792368
11076		5.711608	-2.279979	7.852914	0.017369	0.020624	-0.005841	1.000000	0.000217	0.000258	-0.000073	0.554414	-0.606583	0.569809	0.813422	0.539725	-0.216888	-0.175980	0.583741	0.792640
11077		5.719019	-2.253743	7.871654	0.013364	0.017468	-0.003018	1.000000	0.000167	0.000218	-0.000038	0.553664	-0.607377	0.569693	0.814107	0.538700	-0.216867	-0.175173	0.583863	0.792728
11078		5.687289	-2.229842	7.887573	0.004037	0.007965	-0.000921	1.000000	0.000050	0.000100	-0.000012	0.553970	-0.607210	0.569573	0.813887	0.538984	-0.216990	-0.175232	0.583774	0.792781
11079		5.719048	-2.242385	7.839653	-0.002401	0.003598	0.000972	1.000000	-0.000030	0.000045	0.000012	0.554276	-0.606935	0.569568	0.813573	0.539534	-0.216799	-0.175719	0.583552	0.792837
11080		5.708333	-2.266646	7.857411	-0.001191	0.005611	0.001584	1.000000	-0.000015	0.000070	0.000020	0.554487	-0.606616	0.569703	0.813357	0.539865	-0.216788	-0.176055	0.583577	0.792743
11081		5.706485	-2.239542	7.867847	-0.001873	0.003893	0.000868	1.000000	-0.000023	0.000049	0.000011	0.553846	-0.607007	0.569910	0.813871	0.539113	-0.216726	-0.175692	0.583866	0.792611
11082		5.699030	-2.261873	7.862036	0.000928	0.005382	0.001026	1.000000	0.000012	0.000067	0.000013	0.553938	-0.607085	0.569738	0.813807	0.539242	-0.216649	-0.175702	0.583667	0.792756
11083		5.686128	-2.256818	7.857594	-0.000088	0.006441	-0.000748	1.000000	-0.000001	0.000081	-0.000009	0.554003	-0.606887	0.569885	0.813744	0.539291	-0.216760	-0.175786	0.583826	0.792620
11084		5.714824	-2.252266	7.886879	-0.000442	0.003351	-0.000261	1.000000	-0.000006	0.000042	-0.000003	0.553948	-0.606800	0.570030	0.813742	0.539336	-0.216658	-0.175970	0.583875	0.792543
11085		5.702611	-2.240118	7.870492	-0.002349	0.004189	0.002442	1.000000	-0.000029	0.000052	0.000031	0.553858	-0.606763	0.570158	0.813828	0.539150	-0.216798	-0.175856	0.584085	0.792414
11086		5.711860	-2.259780	7.866857	-0.001439	0.001947	0.001273	1.000000	-0.000018	0.000024	0.000016	0.553935	-0.606643	0.570210	0.813782	0.539159	-0.216947	-0.175824	0.584202	0.792335
11087		5.709757	-2.266735	7.846372	-0.001713	0.003910	0.001541	1.000000	-0.000021	0.000049	0.000019	0.553496	-0.607039	0.570215	0.814253	0.538299	-0.217316	-0.175027	0.584583	0.792230
11088		5.705542	-2.268802	7.870571	-0.001084	0.005037	0.000785	1.000000	-0.000014	0.000063	0.000010	0.553375	-0.607027	0.570345	0.814384	0.538009	-0.217542	-0.174797	0.584863	0.792074
11089		5.685770	-2.250822	7.857844	0.000608	0.005346	-0.000322	1.000000	0.000008	0.000067	-0.000004	0.553685	-0.606730	0.570361	0.814132	0.538343	-0.217658	-0.174991	0.584863	0.792031
11090		5.700981	-2.255282	7.872540	0.000407	0.003681	0.000984	1.000000	0.000005	0.000046	0.000012	0.553499	-0.607017	0.570235	0.814362	0.537922	-0.217841	-0.174509	0.584953	0.792071
11091		5.717893	-2.264660	7.842857	0.000233	0.006476	0.000599	1.000000	0.000003	0.000081	0.000007	0.554383	-0.606531	0.569894	0.813670	0.538922	-0.217956	-0.174932	0.584536	0.792285
11092		5.692532	-2.269849	7.856194	0.000500	0.005920	0.000475	1.000000	0.000006	0.000074	0.000006	0.554281	-0.606765	0.569745	0.813826	0.538618	-0.218122	-0.174526	0.584575	0.792347
11093		5.702859	-2.231940	7.849215	0.000281	0.006717	-0.001527	1.000000	0.000004	0.000084	-0.000019	0.554157	-0.606887	0.569736	0.813966	0.538357	-0.218247	-0.174270	0.584688	0.792319
11094		5.703744	-2.252907	7.861247	0.001181	0.007638	0.001190	1.000000	0.000015	0.000095	0.000015	0.555063	-0.606361	0.569413	0.813277	0.539300	-0.218486	-0.174604	0.584364	0.792485
11095		5.704868	-2.266479	7.861758	-0.000035	0.007031	0.000721	1.000000	-0.000000	0.000088	0.000009	0.555589	-0.605848	0.569447	0.812838	0.539895	-0.218650	-0.174973	0.584347	0.792416
11096		5.696849	-2.245748	7.843083	0.001557	0.006508	0.000268	1.000000	0.000019	0.000081	0.000003	0.554990	-0.606345	0.569501	0.813386	0.539020	-0.218769	-0.174323	0.584639	0.792344
11097		5.709467	-2.271495	7.860496	0.002186	0.007635	-0.000489	1.000000	0.000027	0.000095	-0.000006	0.555336	-0.606002	0.569529	0.813113	0.539359	-0.218951	-0.174496	0.584683	0.792273
11098		5.719447	-2.248671	7.876378	-0.000007	0.001406	0.000144	1.000000	-0.000000	0.000018	0.000002	0.555761	-0.605598	0.569544	0.812730	0.539939	-0.218943	-0.174928	0.584565	0.792265
11099		5.694197	-2.245556	7.845064	-0.002604	0.001932	0.002274	1.000000	-0.000033	0.000024	0.000028	0.556190	-0.605211	0.569537	0.812420	0.540274	-0.219266	-0.175004	0.584657	0.792180
11100		5.699978	-2.266733	7.865231	-0.001412	0.006407	-0.000423	1.000000	-0.000018	0.000080	-0.000005	0.556057	-0.605346	0.569524	0.812595	0.539913	-0.219508	-0.174615	0.584851	0.792123
11101		5.701784	-2.265285	7.842639	-0.000470	0.008975	0.000313	1.000000	-0.000006	0.000112	0.000004	0.555959	-0.605510	0.569444	0.812694	0.539769	-0.219493	-0.174463	0.584813	0.792184
11102		5.701929	-2.251194	7.853108	0.000702	0.007584	-0.000834	1.000000	0.000009	0.000095	-0.000010	0.555713	-0.605772	0.569405	0.812928	0.539405	-0.219524	-0.174158	0.584878	0.792204
11103		5.700214	-2.258855	7.865611	-0.000506	0.005921	0.002149	1.000000	-0.000006	0.000074	0.000027	0.555597	-0.605786	0.569505	0.813015	0.539269	-0.219535	-0.174125	0.584989	0.792129
11104		5.719649	-2.255836	7.877700	-0.001570	0.006738	0.002498	1.000000	-0.000020	0.000084	0.000031	0.556310	-0.605312	0.569312	0.812435	0.540108	-0.219620	-0.174551	0.584706	0.792244
11105		5.704626	-2.265664	7.863976	-0.002634	0.007556	0.002846	1.000000	-0.000033	0.000094	0.000036	0.556363	-0.605177	0.569404	0.812393	0.540127	-0.219727	-0.174577	0.584828	0.792148
11106		5.698378	-2.274616	7.867637	-0.003214	0.006670	0.001477	1.000000	-0.000040	0.000083	0.000018	0.556640	-0.604905	0.569423	0.812173	0.540403	-0.219864	-0.174721	0.584855	0.792097
11107		5.722932	-2.255787	7.865411	0.001187	0.006230	0.001044	1.000000	0.000015	0.000078	0.000013	0.556428	-0.605111	0.569411	0.812370	0.540095	-0.219892	-0.174477	0.584926	0.792098
11108		5.698964	-2.273322	7.845907	0.000066	0.007862	0.000064	1.000000	0.000001	0.000098	0.000001	0.556519	-0.605153	0.569277	0.812383	0.539951	-0.220197	-0.174129	0.585014	0.792109
11109		5.698810	-2.266816	7.867860	0.001021	0.007618	0.000512	1.000000	0.000013	0.000095	0.000006	0.556274	-0.605526	0.569120	0.812655	0.539499	-0.220302	-0.173641	0.585047	0.792193
11110		5.721607	-2.261496	7.856522	-0.000245	0.006421	-0.001428	1.000000	-0.000003	0.000080	-0.000018	0.556668	-0.605096	0.569192	0.812302	0.540005	-0.220361	-0.174027	0.585024	0.792125
11111		5.703647	-2.272212	7.866332	-0.000399	0.005347	0.001350	1.000000	-0.000005	0.000067	0.000017	0.556698	-0.605037	0.569226	0.812272	0.540047	-0.220373	-0.174075	0.585047	0.792097
11112		5.703113	-2.257470	7.844066	-0.001731	0.006720	0.001821	1.000000	-0.000022	0.000084	0.000023	0.556741	-0.604891	0.569338	0.812269	0.539945	-0.220634	-0.173951	0.585292	0.791943
11113		5.696284	-2.280974	7.870845	0.001187	0.006229	0.001043	1.000000	0.000015	0.000078	0.000013	0.556881	-0.604728	0.569375	0.812156	0.540078	-0.220722	-0.174030	0.585337	0.791892
11114		5.700096	-2.265048	7.857521	0.001926	0.006782	-0.000511	1.000000	0.000024	0.000085	-0.000006	0.557243	-0.604345	0.569427	0.811825	0.540570	-0.220735	-0.174416	0.585278	0.791851
11115		5.689654	-2.273028	7.852746	0.002983	0.007370	-0.000716	1.000000	0.000037	0.000092	-0.000009	0.557029	-0.604671	0.569291	0.812050	0.540221	-0.220765	-0.174053	0.585265	0.791941
11116		5.716351	-2.231969	7.848474	-0.001411	0.006405	-0.000429	1.000000	-0.000018	0.000080	-0.000005	0.556865	-0.604703	0.569417	0.812127	0.540187	-0.220562	-0.174217	0.585262	0.791907
11117		5.708113	-2.261760	7.854505	0.000065	0.007860	0.000061	1.000000	0.000001	0.000098	0.000001	0.557514	-0.604251	0.569261	0.811618	0.540875	-0.220749	-0.174511	0.585093	0.791967
11118		5.715340	-2.260789	7.873038	0.000918	0.006784	0.001164	1.000000	0.000011	0.000085	0.000015	0.558356	-0.603584	0.569144	0.810935	0.541811	-0.220967	-0.174996	0.584917	0.791991
11119		5.702196	-2.255686	7.868744	0.000862	0.007598	-0.000165	1.000000	0.000011	0.000095	-0.000002	0.558101	-0.603830	0.569133	0.811146	0.541529	-0.220879	-0.174829	0.584923	0.792023
11120		5.714870	-2.273931	7.874840	0.002338	0.009054	0.000325	1.000000	0.000029	0.000113	0.000004	0.558489	-0.603547	0.569053	0.810816	0.542019	-0.220890	-0.175121	0.584762	0.792077
11121		5.706704	-2.252665	7.856461	0.003938	0.007125	-0.000267	1.000000	0.000049	0.000089	-0.000003	0.558378	-0.603427	0.569289	0.810894	0.541856	-0.221004	-0.175113	0.585037	0.791876
11122		5.693514	-2.289530	7.865729	0.005146	0.009136	0.000345	1.000000	0.000064	0.000114	0.000004	0.558304	-0.603433	0.569355	0.810963	0.541724	-0.221075	-0.175029	0.585152	0.791809
11123		5.708885	-2.251532	7.900308	0.003519	0.006257	-0.000962	1.000000	0.000044	0.000078	-0.000012	0.558317	-0.603384	0.569394	0.810962	0.541691	-0.221158	-0.174992	0.585233	0.791757
11124		5.688346	-2.274277	7.868618	0.003685	0.004869	-0.000431	1.000000	0.000046	0.000061	-0.000005	0.558322	-0.603429	0.569342	0.810980	0.541643	-0.221210	-0.174895	0.585231	0.791780
11125		5.694963	-2.271774	7.854671	-0.000354	0.006992	-0.000639	1.000000	-0.000004	0.000087	-0.000008	0.557915	-0.603735	0.569417	0.811349	0.541054	-0.221298	-0.174480	0.585461	0.791702
11126		5.699874	-2.249422	7.862346	0.002179	0.009035	-0.000353	1.000000	0.000027	0.000113	-0.000004	0.558576	-0.603271	0.569259	0.810796	0.541867	-0.221338	-0.174937	0.585187	0.791804
11127		5.702505	-2.248576	7.872421	0.001121	0.008447	-0.000149	1.000000	0.000014	0.000106	-0.000002	0.558595	-0.603332	0.569177	0.810768	0.541958	-0.221216	-0.175003	0.585041	0.791897
11128		5.700466	-2.256128	7.885150	-0.000733	0.008120	0.000278	1.000000	-0.000009	0.000102	0.000003	0.558041	-0.603797	0.569226	0.811254	0.541233	-0.221209	-0.174519	0.585231	0.791864
11129		5.687877	-2.244017	7.869028	-0.002942	0.004707	0.001198	1.000000	-0.000037	0.000059	0.000015	0.558582	-0.603264	0.569262	0.810782	0.541902	-0.221300	-0.174982	0.585162	0.791812
11130		5.705442	-2.263142	7.883090	-0.004748	0.004971	0.003096	1.000000	-0.000059	0.000062	0.000039	0.558957	-0.602923	0.569255	0.810487	0.542270	-0.221482	-0.175153	0.585172	0.791767
11131		5.698863	-2.263576	7.842666	-0.002957	0.007517	0.001481	1.000000	-0.000037	0.000094	0.000019	0.558377	-0.603307	0.569417	0.810977	0.541535	-0.221488	-0.174734	0.585458	0.791648
11132		5.710709	-2.255181	7.858297	-0.001632	0.007549	0.001155	1.000000	-0.000020	0.000094	0.000014	0.558554	-0.603216	0.569340	0.810860	0.541659	-0.221610	-0.174710	0.585437	0.791669
11133		5.688657	-2.267955	7.891969	-0.000796	0.009283	0.002544	1.000000	-0.000010	0.000116	0.000032	0.558765	-0.603027	0.569333	0.810689	0.541884	-0.221688	-0.174829	0.585423	0.791653
11134		5.683035	-2.261290	7.872804	-0.000252	0.006767	0.002158	1.000000	-0.000003	0.000085	0.000027	0.558534	-0.603227	0.569348	0.810870	0.541656	-0.221581	-0.174727	0.585428	0.791672
11135		5.696233	-2.272464	7.867170	0.000222	0.007875	0.000727	1.000000	0.000003	0.000098	0.000009	0.558016	-0.603659	0.569398	0.811353	0.540882	-0.221706	-0.174142	0.585698	0.791601
11136		5.701555	-2.242838	7.863244	0.000648	0.007337	0.001280	1.000000	0.000008	0.000092	0.000016	0.558199	-0.603539	0.569346	0.811198	0.541117	-0.221701	-0.174277	0.585605	0.791640
11137		5.705438	-2.270287	7.863030	-0.001570	0.005329	0.002340	1.000000	-0.000020	0.000067	0.000029	0.558111	-0.603576	0.569393	0.811271	0.540998	-0.221721	-0.174215	0.585677	0.791601
11138		5.690879	-2.279804	7.849038	-0.000244	0.005361	0.002016	1.000000	-0.000003	0.000067	0.000025	0.557827	-0.603808	0.569425	0.811523	0.540613	-0.221738	-0.173952	0.585793	0.791572
11139		5.707774	-2.262897	7.861797	0.000230	0.006469	0.000585	1.000000	0.000003	0.000081	0.000007	0.557990	-0.603700	0.569379	0.811434	0.540659	-0.221955	-0.173846	0.585862	0.791545
11140		5.698945	-2.257494	7.866169	0.000380	0.007891	0.001400	1.000000	0.000005	0.000099	0.000018	0.557574	-0.604028	0.569440	0.811792	0.540126	-0.221942	-0.173510	0.586016	0.791505
11141		5.686717	-2.280244	7.851925	-0.000142	0.006193	0.001360	1.000000	-0.000002	0.000077	0.000017	0.557904	-0.603733	0.569429	0.811507	0.540539	-0.221980	-0.173782	0.585938	0.791502
11142		5.699405	-2.263903	7.855841	-0.000663	0.004494	0.001320	1.000000	-0.000008	0.000056	0.000017	0.558152	-0.603492	0.569441	0.811307	0.540792	-0.222093	-0.173918	0.585953	0.791462
11143		5.701024	-2.277529	7.855996	0.000609	0.005340	-0.000333	1.000000	0.000008	0.000067	-0.000004	0.558011	-0.603564	0.569504	0.811406	0.540672	-0.222023	-0.173910	0.585990	0.791436
11144		5.702619	-2.256879	7.887151	0.001280	0.008461	0.000522	1.000000	0.000016	0.000106	0.000007	0.557835	-0.603734	0.569495	0.811562	0.540443	-0.222011	-0.173744	0.586026	0.791446
11145		5.696243	-2.291305	7.849015	0.000483	0.008722	0.000744	1.000000	0.000006	0.000109	0.000009	0.557129	-0.604292	0.569595	0.812194	0.539456	-0.222101	-0.173058	0.586360	0.791349
11146		5.693515	-2.271288	7.871379	0.000081	0.005046	-0.000232	1.000000	0.000001	0.000063	-0.000003	0.556932	-0.604422	0.569649	0.812341	0.539267	-0.222020	-0.173000	0.586399	0.791332
11147		5.689749	-2.257549	7.872808	0.000974	0.007021	-0.000969	1.000000	0.000012	0.000088	-0.000012	0.557292	-0.604179	0.569556	0.812067	0.539627	-0.222150	-0.173130	0.586319	0.791363
11148		5.691272	-2.270721	7.873164	0.001675	0.004522	-0.000677	1.000000	0.000021	0.000057	-0.000008	0.557086	-0.604380	0.569544	0.812241	0.539387	-0.222095	-0.172975	0.586333	0.791387
11149		5.696406	-2.247405	7.847713	-0.001065	0.000817	0.000343	1.000000	-0.000013	0.000010	0.000004	0.556897	-0.604420	0.569687	0.812389	0.539152	-0.222127	-0.172890	0.586509	0.791275
11150		5.692124	-2.283270	7.840927	-0.000127	0.003382	0.001077	1.000000	-0.000002	0.000042	0.000013	0.557077	-0.604225	0.569717	0.812271	0.539237	-0.222350	-0.172863	0.586630	0.791191
11151		5.691265	-2.282907	7.841656	0.002523	0.005906	-0.002884	1.000000	0.000032	0.000074	-0.000036	0.556986	-0.604327	0.569698	0.812339	0.539165	-0.222275	-0.172834	0.586592	0.791226
11152		5.702548	-2.245616	7.867243	0.001927	0.006776	-0.000518	1.000000	0.000024	0.000085	-0.000006	0.556803	-0.604552	0.569638	0.812502	0.538942	-0.222220	-0.172658	0.586565	0.791284
11153		5.701887	-2.280378	7.869887	0.001406	0.005077	-0.000557	1.000000	0.000018	0.000063	-0.000007	0.556970	-0.604391	0.569646	0.812341	0.539204	-0.222171	-0.172877	0.586489	0.791293
11154		5.690123	-2.233578	7.884236	0.000245	0.003658	0.000300	1.000000	0.000003	0.000046	0.000004	0.556849	-0.604423	0.569730	0.812406	0.539155	-0.222053	-0.172959	0.586502	0.791265
11155		5.695884	-2.280744	7.862400	-0.000292	0.004769	0.000541	1.000000	-0.000004	0.000060	0.000007	0.556177	-0.604888	0.569892	0.812950	0.538381	-0.221943	-0.172569	0.586733	0.791179
11156		5.702342	-2.286329	7.859717	-0.000024	0.004214	0.000421	1.000000	-0.000000	0.000053	0.000005	0.556520	-0.604618	0.569844	0.812673	0.538762	-0.222032	-0.172765	0.586662	0.791189
11157		5.698803	-2.272603	7.860975	0.000825	0.005597	-0.001786	1.000000	0.000010	0.000070	-0.000022	0.555855	-0.605152	0.569926	0.813225	0.537973	-0.221923	-0.172307	0.586835	0.791160
11158		5.699163	-2.258331	7.871292	0.000749	0.008165	0.000619	1.000000	0.000009	0.000102	0.000008	0.556216	-0.604940	0.569799	0.812946	0.538363	-0.222001	-0.172462	0.586696	0.791230
11159		5.710299	-2.248372	7.854666	-0.001626	0.006141	0.001003	1.000000	-0.000020	0.000077	0.000013	0.556321	-0.604874	0.569767	0.812863	0.538480	-0.222021	-0.172514	0.586657	0.791248
11160		5.698427	-2.271345	7.840110	-0.001090	0.005030	0.000762	1.000000	-0.000014	0.000063	0.000010	0.556362	-0.604782	0.569825	0.812848	0.538441	-0.222171	-0.172452	0.586788	0.791164
11161		5.701112	-2.278684	7.861161	-0.000300	0.006173	0.000680	1.000000	-0.000004	0.000077	0.000009	0.556378	-0.604734	0.569860	0.812838	0.538434	-0.222223	-0.172447	0.586844	0.791123
11162		5.700664	-2.271109	7.850289	0.000357	0.003085	-0.000496	1.000000	0.000004	0.000039	-0.000006	0.556915	-0.604238	0.569861	0.812352	0.539182	-0.222187	-0.173005	0.586667	0.791133
11163		5.708343	-2.270027	7.868496	-0.000084	0.006431	-0.000770	1.000000	-0.000001	0.000080	-0.000010	0.556507	-0.604541	0.569939	0.812694	0.538677	-0.222160	-0.172708	0.586819	0.791085
11164		5.691423	-2.265549	7.854974	-0.000128	0.003382	0.001075	1.000000	-0.000002	0.000042	0.000013	0.556533	-0.604506	0.569950	0.812678	0.538683	-0.222204	-0.172699	0.586850	0.791064
11165		5.690046	-2.273568	7.867036	-0.002260	0.005016	0.001758	1.000000	-0.000028	0.000063	0.000022	0.556761	-0.604312	0.569934	0.812520	0.538843	-0.222395	-0.172709	0.586904	0.791022
11166		5.692038	-2.279801	7.855686	0.000185	0.005876	-0.000891	1.000000	0.000002	0.000073	-0.000011	0.556872	-0.604225	0.569917	0.812430	0.538967	-0.222423	-0.172773	0.586879	0.791026
11167		5.702655	-2.284699	7.861930	0.000080	0.005044	-0.000236	1.000000	0.000001	0.000063	-0.000003	0.557829	-0.603414	0.569840	0.811611	0.540161	-0.222518	-0.173535	0.586615	0.791055
11168		5.706462	-2.276643	7.859848	-0.000449	0.004751	-0.000135	1.000000	-0.000006	0.000059	-0.000002	0.557488	-0.603632	0.569944	0.811909	0.539687	-0.222578	-0.173236	0.586827	0.790963
11169		5.693755	-2.271750	7.855117	0.000123	0.005635	0.001233	1.000000	0.000002	0.000070	0.000015	0.556661	-0.604290	0.570055	0.812623	0.538617	-0.222566	-0.172547	0.587133	0.790887
11170		5.692652	-2.271741	7.855919	0.000609	0.005338	-0.000337	1.000000	0.000008	0.000067	-0.000004	0.557097	-0.603873	0.570071	0.812235	0.539195	-0.222584	-0.172967	0.587032	0.790870
11171		5.697964	-2.249452	7.863309	0.000869	0.006187	-0.000318	1.000000	0.000011	0.000077	-0.000004	0.557035	-0.603901	0.570101	0.812271	0.539165	-0.222524	-0.172996	0.587030	0.790865
11172		5.705004	-2.282344	7.851167	0.001866	0.006533	0.001605	1.000000	0.000023	0.000082	0.000020	0.557704	-0.603428	0.569948	0.811733	0.539920	-0.222657	-0.173369	0.586823	0.790938
11173		5.687247	-2.285263	7.849481	0.000601	0.006742	-0.000199	1.000000	0.000008	0.000084	-0.000002	0.557764	-0.603341	0.569982	0.811680	0.539986	-0.222690	-0.173424	0.586851	0.790904
11174		5.686979	-2.243597	7.869324	-0.000441	0.003346	-0.000276	1.000000	-0.000006	0.000042	-0.000003	0.557589	-0.603423	0.570066	0.811821	0.539770	-0.222698	-0.173324	0.586966	0.790841
11175		5.696311	-2.263051	7.865857	-0.002358	0.002779	0.002271	1.000000	-0.000029	0.000035	0.000028	0.557433	-0.603495	0.570142	0.811951	0.539566	-0.222720	-0.173219	0.587079	0.790780
11176		5.701173	-2.283124	7.853723	-0.001091	0.005029	0.000758	1.000000	-0.000014	0.000063	0.000009	0.557165	-0.603653	0.570237	0.812178	0.539211	-0.222751	-0.173014	0.587243	0.790703
11177		5.703905	-2.290090	7.874824	0.002465	0.005663	-0.000760	1.000000	0.000031	0.000071	-0.000010	0.558005	-0.602974	0.570134	0.811474	0.540220	-0.222873	-0.173611	0.587013	0.790743
11178		5.693654	-2.255400	7.856624	0.001659	0.007328	-0.000401	1.000000	0.000021	0.000092	-0.000005	0.557944	-0.603090	0.570071	0.811531	0.540151	-0.222831	-0.173537	0.586958	0.790800
11179		5.699399	-2.267972	7.865833	0.002049	0.004796	-0.001455	1.000000	0.000026	0.000060	-0.000018	0.557940	-0.603042	0.570126	0.811541	0.540105	-0.222906	-0.173506	0.587049	0.790740
11180		5.698922	-2.260187	7.855063	-0.000562	0.005322	0.000656	1.000000	-0.000007	0.000067	0.000008	0.557916	-0.603022	0.570170	0.811563	0.540054	-0.222951	-0.173478	0.587117	0.790695
11181		5.704816	-2.273512	7.863950	-0.001931	0.004700	-0.000492	1.000000	-0.000024	0.000059	-0.000006	0.557501	-0.603314	0.570268	0.811917	0.539519	-0.222957	-0.173157	0.587309	0.790623
11182		5.694500	-2.282308	7.858799	0.000529	0.007904	0.002063	1.000000	0.000007	0.000099	0.000026	0.557816	-0.603085	0.570201	0.811665	0.539866	-0.223035	-0.173323	0.587224	0.790649
11183		5.700817	-2.279994	7.845178	0.001453	0.008124	-0.002407	1.000000	0.000018	0.000102	-0.000030	0.558285	-0.602732	0.570115	0.811266	0.540458	-0.223054	-0.173681	0.587043	0.790706
11184		5.707729	-2.278535	7.864039	0.001226	0.009269	-0.000819	1.000000	0.000015	0.000116	-0.000010	0.558315	-0.602806	0.570008	0.811274	0.540419	-0.223117	-0.173546	0.587002	0.790765
11185		5.718369	-2.275702	7.859165	0.001024	0.006202	0.000353	1.000000	0.000013	0.000078	0.000004	0.558154	-0.602943	0.570021	0.811423	0.540183	-0.223148	-0.173370	0.587079	0.790747
11186		5.705924	-2.271568	7.887152	0.002074	0.008193	0.000291	1.000000	0.000026	0.000102	0.000004	0.557267	-0.603664	0.570126	0.812192	0.539032	-0.223131	-0.172620	0.587396	0.790676
11187		5.683852	-2.274760	7.876758	0.001822	0.005941	0.000133	1.000000	0.000023	0.000074	0.000002	0.557428	-0.603472	0.570172	0.812032	0.539287	-0.223099	-0.172853	0.587359	0.790652
11188		5.702653	-2.269601	7.856950	0.002301	0.007047	-0.001299	1.000000	0.000029	0.000088	-0.000016	0.557479	-0.603451	0.570144	0.811972	0.539415	-0.223007	-0.172971	0.587263	0.790698
11189		5.692392	-2.277754	7.851943	0.001448	0.005665	0.000908	1.000000	0.000018	0.000071	0.000011	0.557937	-0.603084	0.570084	0.811597	0.539937	-0.223113	-0.173253	0.587161	0.790711
11190		5.696008	-2.269318	7.850130	0.002041	0.006198	-0.001318	1.000000	0.000026	0.000077	-0.000016	0.557541	-0.603391	0.570147	0.811943	0.539410	-0.223129	-0.172909	0.587330	0.790661
11191		5.687303	-2.263411	7.854483	0.001968	0.007362	0.000945	1.000000	0.000025	0.000092	0.000012	0.557800	-0.603193	0.570104	0.811726	0.539723	-0.223159	-0.173090	0.587246	0.790685
11192		5.700181	-2.281670	7.860551	0.001398	0.006477	-0.000424	1.000000	0.000017	0.000081	-0.000005	0.557461	-0.603520	0.570088	0.812049	0.539206	-0.223235	-0.172669	0.587384	0.790674
11193		5.699453	-2.273757	7.850019	0.001398	0.006477	-0.000425	1.000000	0.000017	0.000081	-0.000005	0.557319	-0.603630	0.570111	0.812164	0.539046	-0.223203	-0.172584	0.587418	0.790667
11194		5.698746	-2.274512	7.883427	0.002081	0.006788	0.000150	1.000000	0.000026	0.000085	0.000002	0.556915	-0.603951	0.570166	0.812489	0.538604	-0.223088	-0.172359	0.587494	0.790660
11195		5.692426	-2.273415	7.843498	0.002447	0.008467	-0.000488	1.000000	0.000031	0.000106	-0.000006	0.556856	-0.603968	0.570206	0.812518	0.538591	-0.223013	-0.172415	0.587488	0.790652
11196		5.690809	-2.272897	7.844821	0.003025	0.007948	0.000742	1.000000	0.000038	0.000099	0.000009	0.556767	-0.604127	0.570123	0.812622	0.538415	-0.223057	-0.172208	0.587486	0.790699
11197		5.690451	-2.265870	7.866867	0.002301	0.007046	-0.001302	1.000000	0.000029	0.000088	-0.000016	0.557232	-0.603809	0.570006	0.812243	0.538961	-0.223118	-0.172490	0.587312	0.790766
11198		5.700623	-2.270305	7.873605	0.003025	0.007947	0.000741	1.000000	0.000038	0.000099	0.000009	0.557885	-0.603337	0.569868	0.811708	0.539728	-0.223212	-0.172902	0.587093	0.790840
11199		5.687043	-2.272405	7.880782	0.002350	0.006232	0.000029	1.000000	0.000029	0.000078	0.000000	0.557262	-0.603870	0.569913	0.812243	0.538946	-0.223154	-0.172396	0.587263	0.790823
11200		5.701963	-2.268809	7.884777	0.003130	0.008777	0.000084	1.000000	0.000039	0.000110	0.000001	0.557630	-0.603572	0.569868	0.811917	0.539451	-0.223125	-0.172744	0.587106	0.790864
11201		5.690602	-2.275572	7.847884	0.004342	0.009382	0.000558	1.000000	0.000054	0.000117	0.000007	0.557757	-0.603595	0.569719	0.811849	0.539519	-0.223204	-0.172649	0.587019	0.790949
11202		5.680177	-2.284271	7.875906	0.005929	0.010261	0.000257	1.000000	0.000074	0.000128	0.000003	0.557265	-0.604018	0.569752	0.812252	0.538971	-0.223065	-0.172345	0.587089	0.790964
11203		5.687286	-2.274327	7.883712	0.005957	0.009910	-0.003338	1.000000	0.000074	0.000124	-0.000042	0.557505	-0.603847	0.569699	0.812027	0.539349	-0.222968	-0.172628	0.586917	0.791030
11204		5.683727	-2.252184	7.874037	0.001243	0.006457	-0.001105	1.000000	0.000016	0.000081	-0.000014	0.557414	-0.603951	0.569677	0.812117	0.539205	-0.222990	-0.172498	0.586942	0.791040
11205		5.698043	-2.255611	7.856731	-0.000777	0.003659	0.001959	1.000000	-0.000010	0.000046	0.000024	0.557344	-0.603944	0.569754	0.812170	0.539115	-0.223013	-0.172475	0.587032	0.790978
11206		5.695124	-2.277404	7.859485	0.000088	0.003637	-0.000384	1.000000	0.000001	0.000045	-0.000005	0.557252	-0.604001	0.569784	0.812258	0.538960	-0.223067	-0.172358	0.587116	0.790941
11207		5.694232	-2.277132	7.860210	0.001513	0.005902	-0.001224	1.000000	0.000019	0.000074	-0.000015	0.558065	-0.603337	0.569691	0.811549	0.540029	-0.223064	-0.173067	0.586816	0.791008
11208		5.699525	-2.254798	7.867601	-0.000190	0.005595	-0.000131	1.000000	-0.000002	0.000070	-0.000002	0.557881	-0.603465	0.569736	0.811708	0.539784	-0.223078	-0.172915	0.586910	0.790972
11209		5.681533	-2.265568	7.877060	-0.001248	0.005008	0.000069	1.000000	-0.000016	0.000063	0.000001	0.557949	-0.603388	0.569750	0.811658	0.539831	-0.223145	-0.172925	0.586946	0.790943
11210		5.691092	-2.277331	7.862427	-0.001094	0.005026	0.000744	1.000000	-0.000014	0.000063	0.000009	0.558015	-0.603326	0.569751	0.811623	0.539840	-0.223252	-0.172880	0.587001	0.790912
11211		5.694316	-2.276818	7.871946	0.001406	0.005071	-0.000567	1.000000	0.000018	0.000063	-0.000007	0.557714	-0.603514	0.569847	0.811866	0.539487	-0.223219	-0.172709	0.587132	0.790852
11212		5.694767	-2.262580	7.882120	-0.000353	0.006980	-0.000671	1.000000	-0.000004	0.000087	-0.000008	0.557965	-0.603344	0.569782	0.811675	0.539737	-0.223313	-0.172798	0.587078	0.790873
11213		5.692516	-2.268903	7.862213	0.001137	0.005626	-0.000449	1.000000	0.000014	0.000070	-0.000006	0.557546	-0.603715	0.569799	0.812051	0.539162	-0.223333	-0.172384	0.587224	0.790855
11214		5.695654	-2.268120	7.871871	0.001137	0.005626	-0.000450	1.000000	0.000014	0.000070	-0.000006	0.557221	-0.603894	0.569927	0.812301	0.538812	-0.223267	-0.172254	0.587361	0.790781
11215		5.690455	-2.268383	7.863854	0.001453	0.004259	0.000765	1.000000	0.000018	0.000053	0.000010	0.557095	-0.603900	0.570044	0.812374	0.538734	-0.223190	-0.172318	0.587427	0.790719
11216		5.692004	-2.281831	7.864167	0.000070	0.006442	-0.000115	1.000000	0.000001	0.000081	-0.000001	0.557238	-0.603774	0.570038	0.812248	0.538923	-0.223192	-0.172449	0.587383	0.790723
11217		5.697068	-2.259329	7.871771	0.002831	0.007335	-0.001407	1.000000	0.000035	0.000092	-0.000018	0.557152	-0.603838	0.570054	0.812302	0.538880	-0.223100	-0.172474	0.587357	0.790737
11218		5.689337	-2.280527	7.866475	0.004158	0.007367	-0.001725	1.000000	0.000052	0.000092	-0.000022	0.556838	-0.604091	0.570093	0.812561	0.538516	-0.223037	-0.172269	0.587430	0.790727
11219		5.685223	-2.266169	7.868276	0.002446	0.008463	-0.000498	1.000000	0.000031	0.000106	-0.000006	0.556899	-0.604137	0.569984	0.812540	0.538525	-0.223094	-0.172171	0.587375	0.790789
11220		5.693258	-2.249333	7.864096	0.003360	0.007628	-0.001508	1.000000	0.000042	0.000095	-0.000019	0.557124	-0.603946	0.569966	0.812328	0.538870	-0.223030	-0.172440	0.587255	0.790820
11221		5.695492	-2.289426	7.855178	0.004112	0.008178	-0.003059	1.000000	0.000051	0.000102	-0.000038	0.556536	-0.604512	0.569941	0.812839	0.538134	-0.222945	-0.171932	0.587347	0.790862
11222		5.681642	-2.256862	7.893224	0.004185	0.009360	-0.000124	1.000000	0.000052	0.000117	-0.000002	0.556524	-0.604595	0.569865	0.812853	0.538134	-0.222894	-0.171903	0.587263	0.790931
11223		5.695973	-2.251771	7.865137	0.003736	0.007902	-0.002285	1.000000	0.000047	0.000099	-0.000029	0.556390	-0.604757	0.569823	0.812971	0.537973	-0.222851	-0.171779	0.587242	0.790973
11224		5.691684	-2.279922	7.880360	0.004301	0.008787	-0.000918	1.000000	0.000054	0.000110	-0.000011	0.556258	-0.604897	0.569805	0.813076	0.537847	-0.222775	-0.171712	0.587214	0.791008
11225		5.687344	-2.230382	7.880190	0.001898	0.004771	-0.002139	1.000000	0.000024	0.000060	-0.000027	0.556372	-0.604799	0.569796	0.812982	0.537975	-0.222806	-0.171784	0.587197	0.791006
11226		5.695039	-2.263165	7.867853	0.000815	0.003135	0.001520	1.000000	0.000010	0.000039	0.000019	0.556838	-0.604351	0.569817	0.812577	0.538563	-0.222865	-0.172194	0.587120	0.790974
11227		5.685757	-2.263904	7.850966	0.002464	0.005656	-0.000771	1.000000	0.000031	0.000071	-0.000010	0.556589	-0.604543	0.569856	0.812780	0.538277	-0.222815	-0.172039	0.587184	0.790960
11228		5.689712	-2.255859	7.881781	0.006015	0.007689	-0.002145	1.000000	0.000075	0.000096	-0.000027	0.556208	-0.604892	0.569858	0.813086	0.537876	-0.222667	-0.171823	0.587192	0.791001
11229		5.684267	-2.255537	7.874116	0.000185	0.005867	-0.000914	1.000000	0.000002	0.000073	-0.000011	0.556057	-0.604994	0.569896	0.813207	0.537705	-0.222639	-0.171741	0.587244	0.790980
11230		5.691241	-2.253395	7.860117	0.000652	0.004520	0.000978	1.000000	0.000008	0.000056	0.000012	0.556162	-0.604842	0.569956	0.813106	0.537850	-0.222656	-0.171879	0.587267	0.790933
11231		5.680779	-2.269062	7.866379	0.003379	0.004820	-0.001781	1.000000	0.000042	0.000060	-0.000022	0.555899	-0.604990	0.570055	0.813296	0.537610	-0.222543	-0.171831	0.587335	0.790893
11232		5.679649	-2.268166	7.867454	0.003359	0.007626	-0.001513	1.000000	0.000042	0.000095	-0.000019	0.555843	-0.605031	0.570068	0.813317	0.537628	-0.222421	-0.171913	0.587277	0.790918
11233		5.694264	-2.229226	7.869643	0.002194	0.006210	-0.000656	1.000000	0.000027	0.000078	-0.000008	0.555729	-0.605154	0.570047	0.813427	0.537454	-0.222441	-0.171763	0.587308	0.790928
11234		5.692849	-2.271422	7.884078	0.002606	0.007076	0.000036	1.000000	0.000033	0.000088	0.000000	0.555937	-0.604951	0.570060	0.813235	0.537751	-0.222423	-0.171995	0.587246	0.790923
11235		5.698662	-2.241191	7.880038	0.002051	0.004788	-0.001466	1.000000	0.000026	0.000060	-0.000018	0.555975	-0.604895	0.570082	0.813196	0.537811	-0.222420	-0.172056	0.587249	0.790908
11236		5.700340	-2.254414	7.880354	0.001333	0.004831	0.001552	1.000000	0.000017	0.000060	0.000019	0.555803	-0.605061	0.570074	0.813363	0.537536	-0.222476	-0.171823	0.587330	0.790898
11237		5.678068	-2.265454	7.881056	0.001440	0.005660	0.000893	1.000000	0.000018	0.000071	0.000011	0.555716	-0.605158	0.570056	0.813456	0.537371	-0.222533	-0.171664	0.587381	0.790895
11238		5.701944	-2.252388	7.858540	0.000787	0.006397	-0.003143	1.000000	0.000010	0.000080	-0.000039	0.555664	-0.605171	0.570092	0.813492	0.537323	-0.222518	-0.171662	0.587411	0.790873
11239		5.684803	-2.256245	7.888918	-0.000040	0.005610	0.000533	1.000000	-0.000001	0.000070	0.000007	0.556073	-0.604808	0.570079	0.813130	0.537874	-0.222512	-0.172054	0.587281	0.790885
11240		5.690201	-2.268325	7.865644	-0.000874	0.005280	-0.000719	1.000000	-0.000011	0.000066	-0.000009	0.556316	-0.604565	0.570100	0.812921	0.538170	-0.222560	-0.172259	0.587259	0.790856
11241		5.689183	-2.268182	7.866421	0.000983	0.005604	-0.001134	1.000000	0.000012	0.000070	-0.000014	0.556483	-0.604405	0.570107	0.812778	0.538372	-0.222594	-0.172392	0.587240	0.790842
11242		5.689695	-2.253766	7.876546	0.000983	0.005604	-0.001134	1.000000	0.000012	0.000070	-0.000014	0.556064	-0.604717	0.570185	0.813114	0.537905	-0.222494	-0.172159	0.587346	0.790813
11243		5.684410	-2.253929	7.868634	0.001816	0.005934	0.000117	1.000000	0.000023	0.000074	0.000001	0.556286	-0.604538	0.570157	0.812914	0.538220	-0.222462	-0.172383	0.587242	0.790842
11244		5.698127	-2.264535	7.863155	0.002086	0.005380	0.000001	1.000000	0.000026	0.000067	0.000000	0.556864	-0.604040	0.570122	0.812400	0.539009	-0.222432	-0.172943	0.587031	0.790876
11245		5.685630	-2.260130	7.890927	0.002605	0.007075	0.000034	1.000000	0.000033	0.000088	0.000000	0.556532	-0.604304	0.570166	0.812665	0.538650	-0.222333	-0.172763	0.587089	0.790872
11246		5.681362	-2.244881	7.860158	0.003100	0.006776	-0.001533	1.000000	0.000039	0.000085	-0.000019	0.556343	-0.604473	0.570172	0.812829	0.538410	-0.222315	-0.172603	0.587135	0.790873
11247		5.695294	-2.256214	7.887217	0.002193	0.006208	-0.000659	1.000000	0.000027	0.000078	-0.000008	0.556408	-0.604389	0.570196	0.812768	0.538500	-0.222322	-0.172682	0.587139	0.790853
11248		5.689626	-2.255329	7.846999	0.000865	0.006177	-0.000344	1.000000	0.000011	0.000077	-0.000004	0.556683	-0.604125	0.570207	0.812512	0.538900	-0.222286	-0.172996	0.587043	0.790855
11249		5.679886	-2.230800	7.904492	-0.000820	0.003066	0.000480	1.000000	-0.000010	0.000038	0.000006	0.556289	-0.604392	0.570309	0.812851	0.538376	-0.222317	-0.172674	0.587248	0.790774
11250		5.689980	-2.241808	7.856972	-0.003714	-0.000649	0.000828	1.000000	-0.000046	-0.000008	0.000010	0.556515	-0.604091	0.570408	0.812651	0.538639	-0.222411	-0.172887	0.587318	0.790676
11251		5.696001	-2.262861	7.876864	-0.000280	0.001957	0.000248	1.000000	-0.000004	0.000024	0.000003	0.556455	-0.604062	0.570497	0.812706	0.538521	-0.222497	-0.172822	0.587456	0.790587
11252		5.690061	-2.269616	7.847923	0.002301	0.007037	-0.001318	1.000000	0.000029	0.000088	-0.000016	0.556746	-0.603801	0.570490	0.812437	0.538944	-0.222453	-0.173145	0.587337	0.790605
11253		5.682755	-2.249492	7.861576	0.001762	0.008146	-0.001087	1.000000	0.000022	0.000102	-0.000014	0.556822	-0.603771	0.570447	0.812373	0.539052	-0.222427	-0.173206	0.587268	0.790643
11254		5.709771	-2.243432	7.859812	0.000963	0.008407	-0.000872	1.000000	0.000012	0.000105	-0.000011	0.557103	-0.603546	0.570411	0.812126	0.539427	-0.222416	-0.173457	0.587154	0.790672
11255		5.690779	-2.261338	7.881075	0.001286	0.005640	0.000214	1.000000	0.000016	0.000071	0.000003	0.556559	-0.604005	0.570456	0.812596	0.538734	-0.222381	-0.173005	0.587318	0.790650
11256		5.685525	-2.261536	7.873134	0.002085	0.005378	-0.000001	1.000000	0.000026	0.000067	-0.000000	0.556992	-0.603617	0.570444	0.812209	0.539320	-0.222374	-0.173423	0.587180	0.790660
11257		5.704713	-2.256379	7.853423	0.001891	0.006170	-0.002012	1.000000	0.000024	0.000077	-0.000025	0.557035	-0.603574	0.570447	0.812161	0.539409	-0.222334	-0.173509	0.587143	0.790669
11258		5.692416	-2.251545	7.881117	0.003758	0.005092	-0.002557	1.000000	0.000047	0.000064	-0.000032	0.557207	-0.603418	0.570444	0.811992	0.539693	-0.222261	-0.173748	0.587042	0.790692
11259		5.679415	-2.253252	7.887840	0.002894	0.003715	-0.000348	1.000000	0.000036	0.000046	-0.000004	0.556895	-0.603623	0.570533	0.812245	0.539328	-0.222221	-0.173567	0.587167	0.790639
11260		5.697851	-2.254340	7.847300	0.003899	0.006512	-0.001751	1.000000	0.000049	0.000081	-0.000022	0.557035	-0.603498	0.570527	0.812108	0.539562	-0.222159	-0.173762	0.587080	0.790660
11261		5.698702	-2.232943	7.878744	0.003532	0.009635	0.000754	1.000000	0.000044	0.000120	0.000009	0.557327	-0.603305	0.570447	0.811861	0.539936	-0.222152	-0.173980	0.586935	0.790720
11262		5.688047	-2.241039	7.874024	0.002905	0.007111	0.001381	1.000000	0.000036	0.000089	0.000017	0.557358	-0.603288	0.570435	0.811839	0.539962	-0.222168	-0.173982	0.586929	0.790725
11263		5.680227	-2.262641	7.868730	0.003812	0.007677	0.000506	1.000000	0.000048	0.000096	0.000006	0.558045	-0.602748	0.570333	0.811254	0.540819	-0.222219	-0.174505	0.586694	0.790784
11264		5.692415	-2.245141	7.873460	0.004569	0.008225	-0.001044	1.000000	0.000057	0.000103	-0.000013	0.557808	-0.602985	0.570315	0.811447	0.540572	-0.222115	-0.174364	0.586678	0.790826
11265		5.687717	-2.238068	7.886779	0.004579	0.006823	-0.001176	1.000000	0.000057	0.000085	-0.000015	0.557326	-0.603403	0.570344	0.811851	0.540007	-0.222013	-0.174026	0.586768	0.790834
11266		5.693444	-2.250530	7.896090	0.000917	0.003963	0.000854	1.000000	0.000011	0.000050	0.000011	0.557056	-0.603572	0.570429	0.812076	0.539671	-0.222011	-0.173844	0.586903	0.790773
11267		5.675305	-2.258934	7.840530	0.000585	0.003333	-0.001964	1.000000	0.000007	0.000042	-0.000025	0.557061	-0.603555	0.570442	0.812078	0.539649	-0.222054	-0.173817	0.586941	0.790752
11268		5.700626	-2.240205	7.871142	0.003142	0.005963	-0.000203	1.000000	0.000039	0.000075	-0.000003	0.556880	-0.603696	0.570470	0.812217	0.539474	-0.221972	-0.173750	0.586957	0.790754
11269		5.681523	-2.256664	7.860034	0.003251	0.006791	-0.000863	1.000000	0.000041	0.000085	-0.000011	0.557163	-0.603477	0.570426	0.811968	0.539856	-0.221952	-0.174005	0.586831	0.790792
11270		5.688848	-2.254765	7.878628	0.002972	0.003949	-0.002476	1.000000	0.000037	0.000049	-0.000031	0.557417	-0.603235	0.570433	0.811743	0.540187	-0.221971	-0.174240	0.586776	0.790781
11271		5.680520	-2.247382	7.850175	0.002701	0.004504	-0.002362	1.000000	0.000034	0.000056	-0.000030	0.557836	-0.602848	0.570432	0.811353	0.540798	-0.221907	-0.174712	0.586610	0.790800
11272		5.693564	-2.231055	7.886748	0.001933	0.005358	-0.000682	1.000000	0.000024	0.000067	-0.000009	0.558281	-0.602486	0.570380	0.810975	0.541346	-0.221955	-0.175048	0.586477	0.790824
11273		5.693468	-2.257252	7.845566	0.002084	0.005377	-0.000006	1.000000	0.000026	0.000067	-0.000000	0.558747	-0.602062	0.570371	0.810560	0.541961	-0.221969	-0.175480	0.586344	0.790827
11274		5.693301	-2.250141	7.867277	0.003832	0.004873	0.000242	1.000000	0.000048	0.000061	0.000003	0.558653	-0.602103	0.570420	0.810621	0.541898	-0.221902	-0.175502	0.586360	0.790810
11275		5.694042	-2.235506	7.877240	0.000585	0.003332	-0.001966	1.000000	0.000007	0.000042	-0.000025	0.559025	-0.601728	0.570451	0.810286	0.542385	-0.221933	-0.175861	0.586295	0.790779
11276		5.696484	-2.241251	7.865953	0.001434	0.005658	0.000883	1.000000	0.000018	0.000071	0.000011	0.559434	-0.601384	0.570413	0.809941	0.542871	-0.222004	-0.176151	0.586197	0.790787
11277		5.702683	-2.246344	7.863809	0.002301	0.007033	-0.001328	1.000000	0.000029	0.000088	-0.000017	0.559076	-0.601696	0.570434	0.810250	0.542426	-0.221964	-0.175863	0.586289	0.790782
11278		5.686733	-2.235659	7.903583	0.002571	0.006478	-0.001443	1.000000	0.000032	0.000081	-0.000018	0.559190	-0.601589	0.570436	0.810137	0.542613	-0.221920	-0.176022	0.586227	0.790793
11279		5.686237	-2.226738	7.860483	0.000766	0.003944	0.000176	1.000000	0.000010	0.000049	0.000002	0.559109	-0.601590	0.570514	0.810190	0.542543	-0.221899	-0.176036	0.586290	0.790743
11280		5.694788	-2.253342	7.869085	0.000267	0.004244	0.001741	1.000000	0.000003	0.000053	0.000022	0.559530	-0.601214	0.570498	0.809837	0.543026	-0.222006	-0.176322	0.586229	0.790725
11281		5.706203	-2.250745	7.863811	0.000466	0.003905	-0.001176	1.000000	0.000006	0.000049	-0.000015	0.559539	-0.601153	0.570553	0.809812	0.543075	-0.221977	-0.176411	0.586246	0.790693
11282		5.694560	-2.238770	7.879722	0.001892	0.006166	-0.002020	1.000000	0.000024	0.000077	-0.000025	0.559045	-0.601550	0.570618	0.810220	0.542512	-0.221867	-0.176103	0.586360	0.790677
11283		5.689409	-2.238976	7.871719	0.000645	0.004517	0.000965	1.000000	0.000008	0.000056	0.000012	0.558812	-0.601714	0.570674	0.810427	0.542187	-0.221904	-0.175889	0.586493	0.790626
11284		5.691204	-2.252680	7.871867	-0.001092	0.003619	0.000587	1.000000	-0.000014	0.000045	0.000007	0.558790	-0.601685	0.570727	0.810455	0.542110	-0.221988	-0.175830	0.586593	0.790565
11285		5.686917	-2.246849	7.884496	-0.000465	0.006142	-0.000044	1.000000	-0.000006	0.000077	-0.000001	0.559036	-0.601484	0.570697	0.810263	0.542354	-0.222095	-0.175933	0.586574	0.790556
11286		5.685883	-2.246830	7.885247	0.000345	0.004478	-0.000387	1.000000	0.000004	0.000056	-0.000005	0.558962	-0.601501	0.570753	0.810318	0.542273	-0.222092	-0.175915	0.586632	0.790517
11287		5.702711	-2.228592	7.865759	0.000495	0.004498	0.000289	1.000000	0.000006	0.000056	0.000004	0.558879	-0.601544	0.570788	0.810394	0.542144	-0.222130	-0.175828	0.586707	0.790481
11288		5.695723	-2.251703	7.892209	0.000386	0.003670	0.000950	1.000000	0.000005	0.000046	0.000012	0.559074	-0.601309	0.570845	0.810221	0.542376	-0.222193	-0.176006	0.586733	0.790421
11289		5.693066	-2.230553	7.881588	-0.000213	0.003592	-0.001754	1.000000	-0.000003	0.000045	-0.000022	0.558953	-0.601361	0.570908	0.810323	0.542215	-0.222216	-0.175923	0.586828	0.790369
11290		5.702557	-2.249512	7.878480	-0.000023	0.002803	0.000258	1.000000	-0.000000	0.000035	0.000003	0.559187	-0.601085	0.570969	0.810108	0.542519	-0.222256	-0.176167	0.586830	0.790314
11291		5.683689	-2.231540	7.864754	-0.000173	0.002784	-0.000418	1.000000	-0.000002	0.000035	-0.000005	0.559954	-0.600361	0.570980	0.809435	0.543482	-0.222357	-0.176823	0.586681	0.790278
11292		5.690344	-2.238101	7.894617	-0.000166	0.006180	0.001307	1.000000	-0.000002	0.000077	0.000016	0.560022	-0.600312	0.570965	0.809384	0.543545	-0.222389	-0.176842	0.586673	0.790280
11293		5.712494	-2.247114	7.874240	0.000098	0.002229	-0.000532	1.000000	0.000001	0.000028	-0.000007	0.560320	-0.599987	0.571014	0.809123	0.543898	-0.222475	-0.177091	0.586677	0.790221
11294		5.695714	-2.250175	7.871574	-0.000851	0.002472	-0.000995	1.000000	-0.000011	0.000031	-0.000012	0.560077	-0.600116	0.571117	0.809318	0.543617	-0.222453	-0.176972	0.586806	0.790152
11295		5.700585	-2.235917	7.890093	-0.003532	0.005212	-0.000113	1.000000	-0.000044	0.000065	-0.000001	0.560189	-0.600019	0.571109	0.809244	0.543678	-0.222571	-0.176953	0.586848	0.790125
11296		5.715663	-2.232263	7.861433	-0.000736	0.006695	0.000068	1.000000	-0.000009	0.000084	0.000001	0.560239	-0.599999	0.571080	0.809213	0.543709	-0.222610	-0.176936	0.586841	0.790134
11297		5.707978	-2.254438	7.855907	-0.000098	0.007816	-0.000692	1.000000	-0.000001	0.000098	-0.000009	0.560328	-0.599949	0.571046	0.809142	0.543811	-0.222619	-0.176980	0.586797	0.790156
11298		5.680189	-2.238408	7.857470	0.001582	0.005675	0.001557	1.000000	0.000020	0.000071	0.000019	0.560386	-0.599899	0.571041	0.809090	0.543888	-0.222619	-0.177033	0.586776	0.790160
11299		5.698017	-2.249869	7.893324	-0.000736	0.006695	0.000067	1.000000	-0.000009	0.000084	0.000001	0.560592	-0.599729	0.571018	0.808922	0.544113	-0.222681	-0.177149	0.586742	0.790159
11300		5.689577	-2.243499	7.864710	0.000397	0.002268	0.000820	1.000000	0.000005	0.000028	0.000010	0.560318	-0.599895	0.571113	0.809157	0.543752	-0.222707	-0.176943	0.586907	0.790083
11301		5.692228	-2.249876	7.853128	-0.002692	0.004142	0.001009	1.000000	-0.000034	0.000052	0.000013	0.560399	-0.599783	0.571150	0.809103	0.543782	-0.222830	-0.176932	0.586993	0.790022
11302		5.694586	-2.257287	7.874176	-0.000316	0.006159	0.000629	1.000000	-0.000004	0.000077	0.000008	0.560368	-0.599815	0.571148	0.809144	0.543699	-0.222884	-0.176844	0.587038	0.790008
11303		5.707495	-2.233101	7.867127	0.000840	0.008974	-0.000101	1.000000	0.000011	0.000112	-0.000001	0.560683	-0.599582	0.571083	0.808880	0.544075	-0.222924	-0.177051	0.586927	0.790044
11304		5.686526	-2.265090	7.879315	0.001789	0.008731	0.000363	1.000000	0.000022	0.000109	0.000005	0.560721	-0.599587	0.571040	0.808855	0.544112	-0.222927	-0.177046	0.586888	0.790074
11305		5.682371	-2.251254	7.880904	0.001542	0.006483	0.000219	1.000000	0.000019	0.000081	0.000003	0.560855	-0.599480	0.571021	0.808740	0.544280	-0.222934	-0.177151	0.586841	0.790085
11306		5.698259	-2.240470	7.873246	-0.000345	0.005566	-0.000838	1.000000	-0.000004	0.000070	-0.000010	0.561064	-0.599278	0.571028	0.808558	0.544532	-0.222978	-0.177317	0.586815	0.790068
11307		5.696663	-2.247111	7.853011	-0.000823	0.003064	0.000469	1.000000	-0.000010	0.000038	0.000006	0.561423	-0.598908	0.571063	0.808238	0.544980	-0.223042	-0.177636	0.586776	0.790025
11308		5.698011	-2.260787	7.853500	0.000867	0.009566	0.001363	1.000000	0.000011	0.000120	0.000017	0.561805	-0.598655	0.570953	0.807924	0.545426	-0.223090	-0.177859	0.586620	0.790091
11309		5.706473	-2.238017	7.870307	0.001518	0.009285	0.000474	1.000000	0.000019	0.000116	0.000006	0.561857	-0.598668	0.570888	0.807888	0.545484	-0.223079	-0.177860	0.586552	0.790141
11310		5.688353	-2.241725	7.901067	0.002169	0.009003	-0.000414	1.000000	0.000027	0.000113	-0.000005	0.561331	-0.599173	0.570876	0.808351	0.544831	-0.222998	-0.177417	0.586644	0.790172
11311		5.697531	-2.252052	7.854821	0.001039	0.006782	0.001781	1.000000	0.000013	0.000085	0.000022	0.561772	-0.598817	0.570816	0.807979	0.545350	-0.223076	-0.177713	0.586526	0.790194
11312		5.707646	-2.256998	7.861596	0.000322	0.007278	-0.000135	1.000000	0.000004	0.000091	-0.000002	0.561820	-0.598794	0.570792	0.807953	0.545367	-0.223131	-0.177682	0.586533	0.790195
11313		5.696192	-2.237837	7.866142	0.000593	0.006724	-0.000248	1.000000	0.000007	0.000084	-0.000003	0.561991	-0.598658	0.570766	0.807811	0.545561	-0.223170	-0.177785	0.586491	0.790203
11314		5.695132	-2.272833	7.869187	0.002504	0.008233	0.002274	1.000000	0.000031	0.000103	0.000028	0.561990	-0.598696	0.570728	0.807823	0.545539	-0.223182	-0.177736	0.586473	0.790228
11315		5.671468	-2.256019	7.879566	0.001107	0.005023	-0.001940	1.000000	0.000014	0.000063	-0.000024	0.561886	-0.598753	0.570770	0.807906	0.545420	-0.223171	-0.177685	0.586525	0.790200
11316		5.687404	-2.245146	7.871938	0.000890	0.006762	0.001103	1.000000	0.000011	0.000085	0.000014	0.562074	-0.598610	0.570736	0.807753	0.545625	-0.223222	-0.177785	0.586481	0.790210
11317		5.691885	-2.229645	7.858416	-0.000146	0.003375	0.001044	1.000000	-0.000002	0.000042	0.000013	0.562073	-0.598553	0.570795	0.807746	0.545629	-0.223240	-0.177822	0.586535	0.790162
11318		5.683810	-2.259480	7.864159	0.000090	0.007024	0.001314	1.000000	0.000001	0.000088	0.000016	0.562151	-0.598500	0.570775	0.807687	0.545701	-0.223275	-0.177842	0.586522	0.790167
11319		5.694746	-2.257046	7.859274	-0.000466	0.006138	-0.000054	1.000000	-0.000006	0.000077	-0.000001	0.562394	-0.598288	0.570757	0.807477	0.545997	-0.223312	-0.178027	0.586463	0.790169
11320		5.678059	-2.253436	7.877845	0.000160	0.005264	-0.002406	1.000000	0.000002	0.000066	-0.000030	0.562845	-0.597874	0.570747	0.807080	0.546560	-0.223369	-0.178401	0.586361	0.790161
11321		5.689329	-2.250940	7.872738	-0.001906	0.005280	0.000917	1.000000	-0.000024	0.000066	0.000011	0.562563	-0.598101	0.570787	0.807346	0.546138	-0.223440	-0.178089	0.586522	0.790112
11322		5.706508	-2.268188	7.855299	0.000901	0.005361	0.000975	1.000000	0.000011	0.000067	0.000012	0.562680	-0.597985	0.570794	0.807245	0.546276	-0.223471	-0.178178	0.586512	0.790098
11323		5.690442	-2.256885	7.862437	0.001626	0.006715	-0.001912	1.000000	0.000020	0.000084	-0.000024	0.562838	-0.597849	0.570780	0.807102	0.546487	-0.223468	-0.178324	0.586454	0.790109
11324		5.696646	-2.262192	7.860294	-0.000170	0.006176	0.001298	1.000000	-0.000002	0.000077	0.000016	0.562701	-0.597972	0.570786	0.807234	0.546279	-0.223502	-0.178161	0.586523	0.790095
11325		5.694419	-2.234387	7.870746	0.001379	0.004468	-0.002054	1.000000	0.000017	0.000056	-0.000026	0.562658	-0.597959	0.570842	0.807259	0.546245	-0.223493	-0.178179	0.586568	0.790057
11326		5.696867	-2.283017	7.872738	-0.000787	0.002255	0.001803	1.000000	-0.000010	0.000028	0.000023	0.562821	-0.597746	0.570905	0.807116	0.546422	-0.223576	-0.178314	0.586620	0.789988
11327		5.699150	-2.254023	7.859302	-0.000480	0.004144	-0.001648	1.000000	-0.000006	0.000052	-0.000021	0.562685	-0.597821	0.570961	0.807233	0.546243	-0.223591	-0.178216	0.586710	0.789943
11328		5.694054	-2.255220	7.883608	0.002341	0.006219	0.000004	1.000000	0.000029	0.000078	0.000000	0.562365	-0.598079	0.571006	0.807505	0.545861	-0.223544	-0.177993	0.586803	0.789925
11329		5.695617	-2.225667	7.870853	0.001233	0.007842	-0.001012	1.000000	0.000015	0.000098	-0.000013	0.562805	-0.597737	0.570931	0.807122	0.546421	-0.223557	-0.178340	0.586630	0.789975
11330		5.690556	-2.261121	7.865012	0.000321	0.007276	-0.000140	1.000000	0.000004	0.000091	-0.000002	0.562952	-0.597622	0.570905	0.807000	0.546588	-0.223590	-0.178427	0.586591	0.789984
11331		5.683735	-2.276666	7.880184	-0.000196	0.005583	-0.000169	1.000000	-0.000002	0.000070	-0.000002	0.562885	-0.597666	0.570925	0.807065	0.546477	-0.223627	-0.178343	0.586650	0.789959
11332		5.702805	-2.237971	7.890825	-0.001391	0.003578	-0.000777	1.000000	-0.000017	0.000045	-0.000010	0.562671	-0.597794	0.571002	0.807249	0.546199	-0.223643	-0.178188	0.586778	0.789899
11333		5.693125	-2.245777	7.852861	-0.000578	0.005310	0.000605	1.000000	-0.000007	0.000066	0.000008	0.562648	-0.597801	0.571018	0.807272	0.546155	-0.223667	-0.178156	0.586812	0.789881
11334		5.699513	-2.251319	7.850533	0.000752	0.005340	0.000297	1.000000	0.000009	0.000067	0.000004	0.562322	-0.598063	0.571065	0.807558	0.545736	-0.223657	-0.177890	0.586935	0.789849
11335		5.694080	-2.252543	7.875053	0.002328	0.007618	0.000129	1.000000	0.000029	0.000095	0.000002	0.562370	-0.598051	0.571029	0.807516	0.545807	-0.223636	-0.177926	0.586881	0.789881
11336		5.692677	-2.252093	7.876196	0.001922	0.006752	-0.000562	1.000000	0.000024	0.000084	-0.000007	0.561951	-0.598421	0.571055	0.807888	0.545266	-0.223612	-0.177563	0.587008	0.789869
11337		5.688019	-2.244927	7.856804	-0.000061	0.007002	0.000632	1.000000	-0.000001	0.000088	0.000008	0.562313	-0.598130	0.571003	0.807586	0.545681	-0.223691	-0.177789	0.586918	0.789885
11338		5.697378	-2.257452	7.875144	0.000887	0.006760	0.001098	1.000000	0.000011	0.000084	0.000014	0.562145	-0.598291	0.571000	0.807748	0.545426	-0.223728	-0.177584	0.586992	0.789877
11339		5.696036	-2.256263	7.843884	0.002328	0.007618	0.000128	1.000000	0.000029	0.000095	0.000002	0.562256	-0.598219	0.570966	0.807651	0.545573	-0.223716	-0.177672	0.586927	0.789904
11340		5.689741	-2.264914	7.880041	0.000298	0.006682	-0.001608	1.000000	0.000004	0.000084	-0.000020	0.562399	-0.598089	0.570962	0.807525	0.545754	-0.223732	-0.177793	0.586892	0.789903
11341		5.694228	-2.249166	7.866637	0.000075	0.005028	-0.000284	1.000000	0.000001	0.000063	-0.000004	0.562695	-0.597809	0.570962	0.807264	0.546122	-0.223775	-0.178040	0.586835	0.789890
11342		5.699960	-2.262312	7.875774	-0.000690	0.004482	0.001264	1.000000	-0.000009	0.000056	0.000016	0.561965	-0.598396	0.571067	0.807906	0.545177	-0.223763	-0.177433	0.587116	0.789818
11343		5.694870	-2.262892	7.867642	0.001281	0.005632	0.000197	1.000000	0.000016	0.000070	0.000002	0.562185	-0.598184	0.571072	0.807711	0.545455	-0.223790	-0.177627	0.587073	0.789807
11344		5.688945	-2.270597	7.871229	0.001516	0.005886	-0.001254	1.000000	0.000019	0.000074	-0.000016	0.562119	-0.598222	0.571097	0.807760	0.545392	-0.223766	-0.177610	0.587093	0.789795
11345		5.689084	-2.255867	7.881591	0.003510	0.007628	-0.000856	1.000000	0.000044	0.000095	-0.000011	0.562086	-0.598271	0.571079	0.807785	0.545373	-0.223723	-0.177604	0.587061	0.789820
11346		5.682299	-2.270124	7.864526	-0.000467	0.006135	-0.000062	1.000000	-0.000006	0.000077	-0.000001	0.562016	-0.598325	0.571092	0.807852	0.545261	-0.223751	-0.177519	0.587109	0.789804
11347		5.686763	-2.254782	7.851035	-0.000962	0.005035	0.001374	1.000000	-0.000012	0.000063	0.000017	0.561939	-0.598372	0.571118	0.807929	0.545127	-0.223803	-0.177414	0.587186	0.789770
11348		5.689780	-2.254471	7.860588	-0.000873	0.005269	-0.000753	1.000000	-0.000011	0.000066	-0.000009	0.562198	-0.598123	0.571124	0.807700	0.545449	-0.223843	-0.177634	0.587141	0.789754
11349		5.681270	-2.248678	7.864501	0.001899	0.006158	-0.002029	1.000000	0.000024	0.000077	-0.000025	0.562125	-0.598162	0.571156	0.807749	0.545399	-0.223789	-0.177646	0.587147	0.789747
11350		5.692343	-2.245591	7.859775	0.002068	0.006770	0.000112	1.000000	0.000026	0.000085	0.000001	0.562269	-0.598059	0.571120	0.807629	0.545567	-0.223812	-0.177732	0.587096	0.789766
11351		5.677952	-2.255491	7.878091	0.000209	0.006447	0.000515	1.000000	0.000003	0.000081	0.000006	0.562146	-0.598173	0.571123	0.807743	0.545393	-0.223824	-0.177601	0.587142	0.789761
11352		5.701515	-2.250535	7.867277	-0.001097	0.003616	0.000571	1.000000	-0.000014	0.000045	0.000007	0.561848	-0.598387	0.571191	0.808009	0.544983	-0.223862	-0.177334	0.587304	0.789700
11353		5.691995	-2.259540	7.861441	-0.001738	0.002496	0.001331	1.000000	-0.000022	0.000031	0.000017	0.562189	-0.598027	0.571233	0.807714	0.545377	-0.223968	-0.177598	0.587305	0.789640
11354		5.675743	-2.255412	7.847184	-0.000037	0.004200	0.000376	1.000000	-0.000000	0.000053	0.000005	0.562275	-0.597909	0.571272	0.807633	0.545487	-0.223991	-0.177695	0.587323	0.789605
11355		5.697457	-2.265026	7.859830	0.002551	0.009269	-0.001200	1.000000	0.000032	0.000116	-0.000015	0.562010	-0.598190	0.571238	0.807869	0.545160	-0.223937	-0.177459	0.587341	0.789645
11356		5.704884	-2.256072	7.867170	-0.000761	0.006095	-0.001418	1.000000	-0.000010	0.000076	-0.000018	0.562260	-0.597961	0.571232	0.807649	0.545476	-0.223964	-0.177671	0.587281	0.789642
11357		5.683239	-2.260671	7.888319	0.000367	0.005066	0.001066	1.000000	0.000005	0.000063	0.000013	0.562329	-0.597879	0.571250	0.807587	0.545559	-0.223984	-0.177735	0.587287	0.789623
11358		5.688015	-2.245250	7.874647	-0.000826	0.003061	0.000458	1.000000	-0.000010	0.000038	0.000006	0.562460	-0.597713	0.571295	0.807475	0.545696	-0.224056	-0.177832	0.587329	0.789570
11359		5.686079	-2.259588	7.865708	-0.001084	0.002215	0.000444	1.000000	-0.000014	0.000028	0.000006	0.562591	-0.597531	0.571357	0.807359	0.545834	-0.224133	-0.177940	0.587385	0.789504
11360		5.696893	-2.263563	7.839801	0.000975	0.006992	-0.001034	1.000000	0.000012	0.000087	-0.000013	0.562719	-0.597434	0.571332	0.807251	0.545989	-0.224147	-0.178028	0.587340	0.789518
11361		5.701518	-2.241951	7.879886	0.002180	0.007595	-0.000552	1.000000	0.000027	0.000095	-0.000007	0.562471	-0.597681	0.571318	0.807474	0.545670	-0.224121	-0.177798	0.587386	0.789535
11362		5.682421	-2.258896	7.868549	0.000208	0.006446	0.000513	1.000000	0.000003	0.000081	0.000006	0.562398	-0.597762	0.571305	0.807553	0.545536	-0.224163	-0.177671	0.587428	0.789533
11363		5.693205	-2.256447	7.863879	0.000070	0.008418	0.001425	1.000000	0.000001	0.000105	0.000018	0.562222	-0.597958	0.571273	0.807728	0.545262	-0.224199	-0.177432	0.587483	0.789546
11364		5.694389	-2.270073	7.864533	0.000479	0.005892	0.000401	1.000000	0.000006	0.000074	0.000005	0.562143	-0.598019	0.571287	0.807799	0.545152	-0.224208	-0.177358	0.587522	0.789533
11365		5.686427	-2.256601	7.857100	0.003365	0.007606	-0.001535	1.000000	0.000042	0.000095	-0.000019	0.561940	-0.598204	0.571293	0.807957	0.544965	-0.224094	-0.177281	0.587507	0.789561
11366		5.693898	-2.247434	7.864473	0.001121	0.007010	-0.000359	1.000000	0.000014	0.000088	-0.000004	0.561854	-0.598302	0.571275	0.808042	0.544833	-0.224109	-0.177164	0.587531	0.789570
11367		5.687808	-2.255274	7.868120	0.001425	0.005649	0.000869	1.000000	0.000018	0.000071	0.000011	0.561754	-0.598380	0.571291	0.808129	0.544708	-0.224102	-0.177088	0.587567	0.789560
11368		5.702486	-2.258524	7.851309	0.001551	0.005076	0.000082	1.000000	0.000019	0.000063	0.000001	0.561781	-0.598331	0.571315	0.808094	0.544768	-0.224080	-0.177160	0.587561	0.789549
11369		5.695402	-2.238766	7.864383	0.000074	0.005026	-0.000290	1.000000	0.000001	0.000063	-0.000004	0.561840	-0.598273	0.571319	0.808051	0.544810	-0.224132	-0.177168	0.587581	0.789531
11370		5.694784	-2.273967	7.867069	0.000095	0.005618	0.001173	1.000000	0.000001	0.000070	0.000015	0.561629	-0.598448	0.571343	0.808245	0.544511	-0.224161	-0.176954	0.587680	0.789506
11371		5.691787	-2.252803	7.856761	0.001809	0.005922	0.000095	1.000000	0.000023	0.000074	0.000001	0.561891	-0.598219	0.571326	0.808013	0.544851	-0.224171	-0.177183	0.587598	0.789515
11372		5.677476	-2.262747	7.874930	-0.000468	0.006133	-0.000070	1.000000	-0.000006	0.000077	-0.000001	0.561992	-0.598127	0.571322	0.807930	0.544957	-0.224210	-0.177240	0.587593	0.789507
11373		5.702441	-2.243614	7.873478	-0.000038	0.004199	0.000372	1.000000	-0.000000	0.000052	0.000005	0.562308	-0.597822	0.571331	0.807657	0.545332	-0.224284	-0.177483	0.587556	0.789479
11374		5.676136	-2.255290	7.864914	0.000320	0.007271	-0.000154	1.000000	0.000004	0.000091	-0.000002	0.562465	-0.597713	0.571290	0.807534	0.545490	-0.224340	-0.177542	0.587519	0.789493
11375		5.691022	-2.252236	7.869115	0.000081	0.007017	0.001296	1.000000	0.000001	0.000088	0.000016	0.562474	-0.597718	0.571276	0.807537	0.545470	-0.224378	-0.177500	0.587534	0.789492
11376		5.696273	-2.265044	7.878703	0.002452	0.007039	-0.000666	1.000000	0.000031	0.000088	-0.000008	0.562466	-0.597733	0.571268	0.807542	0.545472	-0.224357	-0.177505	0.587516	0.789504
11377		5.675433	-2.260368	7.856271	0.003075	0.007565	-0.002890	1.000000	0.000038	0.000095	-0.000036	0.562472	-0.597742	0.571253	0.807522	0.545533	-0.224280	-0.177576	0.587450	0.789537
11378		5.688836	-2.271587	7.883686	0.001246	0.006435	-0.001150	1.000000	0.000016	0.000080	-0.000014	0.562733	-0.597521	0.571227	0.807294	0.545862	-0.224301	-0.177786	0.587370	0.789550
11379		5.686053	-2.250314	7.873255	0.000232	0.003645	0.000260	1.000000	0.000003	0.000046	0.000003	0.562633	-0.597559	0.571286	0.807376	0.545736	-0.224313	-0.177732	0.587448	0.789504
11380		5.691269	-2.269750	7.861658	0.001133	0.005609	-0.000487	1.000000	0.000014	0.000070	-0.000006	0.562353	-0.597777	0.571334	0.807612	0.545406	-0.224268	-0.177546	0.587534	0.789482
11381		5.690247	-2.269331	7.862519	0.001789	0.005328	-0.001371	1.000000	0.000022	0.000067	-0.000017	0.562149	-0.597921	0.571384	0.807777	0.545181	-0.224221	-0.177441	0.587596	0.789459
11382		5.683277	-2.242708	7.896745	0.001220	0.009234	-0.000904	1.000000	0.000015	0.000115	-0.000011	0.562246	-0.597887	0.571323	0.807699	0.545298	-0.224215	-0.177486	0.587521	0.789505
11383		5.689537	-2.247008	7.862524	0.000590	0.006716	-0.000268	1.000000	0.000007	0.000084	-0.000003	0.562530	-0.597650	0.571292	0.807454	0.545648	-0.224248	-0.177703	0.587438	0.789518
11384		5.710395	-2.264367	7.886742	0.000622	0.005909	0.001073	1.000000	0.000008	0.000074	0.000013	0.562345	-0.597807	0.571309	0.807624	0.545388	-0.224267	-0.177517	0.587519	0.789500
11385		5.683801	-2.240978	7.876072	-0.000714	0.003886	-0.000211	1.000000	-0.000009	0.000049	-0.000003	0.562580	-0.597562	0.571335	0.807416	0.545673	-0.224322	-0.177716	0.587504	0.789465
11386		5.693386	-2.259338	7.840867	-0.000551	0.004499	0.001929	1.000000	-0.000007	0.000056	0.000024	0.562644	-0.597484	0.571353	0.807367	0.545721	-0.224382	-0.177734	0.587539	0.789435
11387		5.696335	-2.258808	7.850518	0.000572	0.006123	-0.001732	1.000000	0.000007	0.000077	-0.000022	0.562628	-0.597466	0.571388	0.807367	0.545735	-0.224347	-0.177787	0.587544	0.789420
11388		5.675683	-2.249111	7.881078	0.001283	0.007620	0.001775	1.000000	0.000016	0.000095	0.000022	0.562956	-0.597214	0.571329	0.807091	0.546124	-0.224394	-0.178005	0.587438	0.789450
11389		5.677741	-2.255197	7.870177	0.000767	0.005928	0.001748	1.000000	0.000010	0.000074	0.000022	0.563218	-0.596990	0.571304	0.806867	0.546435	-0.224443	-0.178190	0.587377	0.789454
11390		5.696316	-2.258227	7.862334	-0.000469	0.006131	-0.000076	1.000000	-0.000006	0.000077	-0.000001	0.563473	-0.596760	0.571293	0.806645	0.546745	-0.224485	-0.178388	0.587322	0.789450
11391		5.695209	-2.258273	7.863123	0.000219	0.005043	0.000381	1.000000	0.000003	0.000063	0.000005	0.563489	-0.596744	0.571294	0.806647	0.546713	-0.224557	-0.178331	0.587368	0.789429
11392		5.685743	-2.260369	7.878495	-0.000324	0.006150	0.000600	1.000000	-0.000004	0.000077	0.000008	0.563597	-0.596641	0.571295	0.806555	0.546833	-0.224594	-0.178401	0.587361	0.789417
11393		5.693515	-2.251938	7.885449	-0.000985	0.004439	-0.000103	1.000000	-0.000012	0.000055	-0.000001	0.563156	-0.596987	0.571369	0.806945	0.546257	-0.224596	-0.178033	0.587546	0.789363
11394		5.688664	-2.252752	7.877097	-0.001371	0.004167	0.000670	1.000000	-0.000017	0.000052	0.000008	0.562788	-0.597262	0.571443	0.807272	0.545763	-0.224622	-0.177715	0.587724	0.789302
11395		5.686726	-2.267307	7.868135	-0.003236	0.001852	-0.000517	1.000000	-0.000040	0.000023	-0.000006	0.562710	-0.597242	0.571541	0.807338	0.545635	-0.224693	-0.177656	0.587864	0.789211
11396		5.695746	-2.251512	7.863211	-0.000872	0.005265	-0.000767	1.000000	-0.000011	0.000066	-0.000010	0.562499	-0.597390	0.571594	0.807519	0.545369	-0.224689	-0.177503	0.587960	0.789174
11397		5.704906	-2.270748	7.860481	-0.000697	0.004478	0.001250	1.000000	-0.000009	0.000056	0.000016	0.562911	-0.597002	0.571594	0.807159	0.545872	-0.224761	-0.177834	0.587888	0.789153
11398		5.685279	-2.253832	7.879232	0.000735	0.006734	0.000407	1.000000	0.000009	0.000084	0.000005	0.563019	-0.596911	0.571583	0.807064	0.546010	-0.224767	-0.177924	0.587852	0.789160
11399		5.692493	-2.251802	7.865483	-0.000456	0.004731	-0.000200	1.000000	-0.000006	0.000059	-0.000003	0.562986	-0.596906	0.571621	0.807092	0.545959	-0.224792	-0.177902	0.587905	0.789125
11400		5.698350	-2.264804	7.874582	0.000503	0.003090	0.000149	1.000000	0.000006	0.000039	0.000002	0.563396	-0.596493	0.571648	0.806722	0.546485	-0.224840	-0.178281	0.587835	0.789092
11401		5.689685	-2.265934	7.857275	-0.000570	0.003905	0.000463	1.000000	-0.000007	0.000049	0.000006	0.563821	-0.596090	0.571649	0.806352	0.546997	-0.224925	-0.178614	0.587768	0.789067
11402		5.700421	-2.271128	7.863624	-0.000684	0.003079	0.001127	1.000000	-0.000009	0.000038	0.000014	0.563438	-0.596365	0.571740	0.806688	0.546494	-0.224943	-0.178305	0.587957	0.788996
11403		5.688120	-2.266255	7.858315	-0.000486	0.005537	-0.001542	1.000000	-0.000006	0.000069	-0.000019	0.563331	-0.596450	0.571756	0.806787	0.546339	-0.224963	-0.178194	0.588014	0.788978
11404		5.678982	-2.267448	7.841333	0.000108	0.006208	0.002629	1.000000	0.000001	0.000078	0.000033	0.563365	-0.596425	0.571749	0.806769	0.546343	-0.225017	-0.178165	0.588036	0.788968
11405		5.687098	-2.252183	7.869276	0.001791	0.005326	-0.001372	1.000000	0.000022	0.000067	-0.000017	0.563313	-0.596444	0.571781	0.806802	0.546310	-0.224979	-0.178182	0.588048	0.788956
11406		5.705853	-2.255891	7.893502	-0.000815	0.001660	0.000327	1.000000	-0.000010	0.000021	0.000004	0.563448	-0.596257	0.571842	0.806686	0.546443	-0.225071	-0.178279	0.588113	0.788885
11407		5.680732	-2.267128	7.851784	-0.002803	0.001911	0.001511	1.000000	-0.000035	0.000024	0.000019	0.563539	-0.596112	0.571905	0.806615	0.546503	-0.225181	-0.178315	0.588205	0.788808
11408		5.702288	-2.284017	7.843302	-0.000211	0.006975	-0.000066	1.000000	-0.000003	0.000087	-0.000001	0.563484	-0.596176	0.571891	0.806674	0.546406	-0.225205	-0.178223	0.588229	0.788811
11409		5.691072	-2.258285	7.868635	0.000692	0.008938	-0.000814	1.000000	0.000009	0.000112	-0.000010	0.563567	-0.596164	0.571822	0.806616	0.546483	-0.225225	-0.178220	0.588170	0.788856
11410		5.688679	-2.265749	7.881299	-0.000741	0.006683	0.000029	1.000000	-0.000009	0.000084	0.000000	0.563529	-0.596202	0.571820	0.806658	0.546411	-0.225253	-0.178152	0.588200	0.788849
11411		5.669572	-2.248154	7.867489	-0.002431	0.003582	0.000859	1.000000	-0.000030	0.000045	0.000011	0.563517	-0.596162	0.571874	0.806675	0.546353	-0.225330	-0.178112	0.588294	0.788788
11412		5.685076	-2.288394	7.884295	-0.003193	-0.000353	0.000698	1.000000	-0.000040	-0.000004	0.000009	0.563479	-0.596076	0.572001	0.806706	0.546266	-0.225429	-0.178091	0.588461	0.788668
11413		5.684212	-2.260842	7.861239	-0.005855	-0.000415	0.001299	1.000000	-0.000073	-0.000005	0.000016	0.563461	-0.595973	0.572125	0.806733	0.546160	-0.225590	-0.178026	0.588663	0.788532
11414		5.695403	-2.266761	7.867058	-0.002833	0.002717	0.000169	1.000000	-0.000035	0.000034	0.000002	0.563606	-0.595797	0.572166	0.806620	0.546275	-0.225715	-0.178080	0.588735	0.788466
11415		5.702825	-2.266179	7.885103	-0.002032	0.002455	-0.000036	1.000000	-0.000025	0.000031	-0.000000	0.563544	-0.595771	0.572254	0.806666	0.546192	-0.225750	-0.178065	0.588838	0.788392
11416		5.701776	-2.273184	7.864595	-0.001486	0.003339	0.001331	1.000000	-0.000019	0.000042	0.000017	0.563392	-0.595843	0.572329	0.806798	0.545983	-0.225785	-0.177949	0.588960	0.788328
11417		5.693386	-2.267959	7.868172	-0.001286	0.005798	-0.001338	1.000000	-0.000016	0.000072	-0.000017	0.563369	-0.595850	0.572345	0.806823	0.545933	-0.225817	-0.177909	0.588999	0.788307
11418		5.689616	-2.254083	7.869445	0.002580	0.006463	-0.001453	1.000000	0.000032	0.000081	-0.000018	0.563327	-0.595881	0.572353	0.806846	0.545926	-0.225754	-0.177940	0.588974	0.788319
11419		5.699683	-2.258780	7.876431	0.000894	0.007343	0.002545	1.000000	0.000011	0.000092	0.000032	0.563243	-0.595997	0.572315	0.806943	0.545759	-0.225810	-0.177765	0.589012	0.788331
11420		5.698349	-2.258973	7.877341	-0.000584	0.005303	0.000583	1.000000	-0.000007	0.000066	0.000007	0.563502	-0.595764	0.572303	0.806724	0.546055	-0.225877	-0.177940	0.588973	0.788320
11421		5.694742	-2.287086	7.859517	0.000732	0.004741	-0.001180	1.000000	0.000009	0.000059	-0.000015	0.563581	-0.595674	0.572318	0.806650	0.546158	-0.225890	-0.178020	0.588968	0.788305
11422		5.700468	-2.258314	7.887618	-0.000985	0.004438	-0.000107	1.000000	-0.000012	0.000055	-0.000001	0.563450	-0.595761	0.572358	0.806773	0.545959	-0.225934	-0.177882	0.589065	0.788264
11423		5.700086	-2.257573	7.855802	-0.000427	0.003923	0.001138	1.000000	-0.000005	0.000049	0.000014	0.563201	-0.595922	0.572435	0.806985	0.545647	-0.225932	-0.177709	0.589192	0.788209
11424		5.679703	-2.289800	7.867057	0.001278	0.005625	0.000187	1.000000	0.000016	0.000070	0.000002	0.563178	-0.595948	0.572431	0.807012	0.545597	-0.225955	-0.177659	0.589211	0.788205
11425		5.693430	-2.258636	7.880993	0.001894	0.007549	-0.001914	1.000000	0.000024	0.000094	-0.000024	0.563138	-0.596015	0.572400	0.807051	0.545546	-0.225938	-0.177608	0.589191	0.788232
11426		5.712051	-2.261199	7.873357	0.000748	0.005333	0.000282	1.000000	0.000009	0.000067	0.000004	0.563358	-0.595830	0.572376	0.806868	0.545793	-0.225996	-0.177744	0.589149	0.788233
11427		5.702251	-2.269926	7.867761	-0.000141	0.003962	0.002492	1.000000	-0.000002	0.000050	0.000031	0.563490	-0.595708	0.572373	0.806771	0.545892	-0.226103	-0.177762	0.589181	0.788205
11428		5.692614	-2.278855	7.861987	-0.001100	0.003612	0.000556	1.000000	-0.000014	0.000045	0.000007	0.563341	-0.595792	0.572433	0.806904	0.545681	-0.226139	-0.177634	0.589292	0.788151
11429		5.707966	-2.275587	7.866012	0.003139	0.005947	-0.000209	1.000000	0.000039	0.000074	-0.000003	0.563313	-0.595826	0.572425	0.806926	0.545657	-0.226118	-0.177621	0.589280	0.788163
11430		5.696643	-2.256324	7.870281	0.000232	0.005633	0.001840	1.000000	0.000003	0.000070	0.000023	0.563310	-0.595835	0.572419	0.806942	0.545612	-0.226170	-0.177559	0.589312	0.788152
11431		5.697577	-2.276694	7.849977	-0.000454	0.006720	0.001379	1.000000	-0.000006	0.000084	0.000017	0.563201	-0.595944	0.572413	0.807051	0.545436	-0.226204	-0.177410	0.589365	0.788147
11432		5.689024	-2.264457	7.874891	0.002711	0.007879	-0.000657	1.000000	0.000034	0.000098	-0.000008	0.563331	-0.595862	0.572369	0.806934	0.545620	-0.226178	-0.177525	0.589277	0.788186
11433		5.687713	-2.264124	7.875933	0.000891	0.005352	0.000958	1.000000	0.000011	0.000067	0.000012	0.563653	-0.595589	0.572336	0.806660	0.546000	-0.226238	-0.177750	0.589201	0.788192
11434		5.687772	-2.256980	7.864892	-0.001990	0.002241	0.002764	1.000000	-0.000025	0.000028	0.000035	0.563799	-0.595403	0.572386	0.806540	0.546130	-0.226350	-0.177828	0.589268	0.788125
11435		5.687702	-2.291594	7.835064	-0.000625	0.007506	-0.000641	1.000000	-0.000008	0.000094	-0.000008	0.563944	-0.595307	0.572343	0.806428	0.546275	-0.226402	-0.177878	0.589232	0.788141
11436		5.703030	-2.281815	7.860208	0.001536	0.006469	0.000198	1.000000	0.000019	0.000081	0.000002	0.563962	-0.595291	0.572342	0.806408	0.546310	-0.226386	-0.177911	0.589215	0.788146
11437		5.692411	-2.254798	7.853138	0.002711	0.007878	-0.000658	1.000000	0.000034	0.000098	-0.000008	0.564153	-0.595162	0.572288	0.806239	0.546570	-0.226361	-0.178074	0.589103	0.788192
11438		5.689181	-2.269474	7.877347	0.001148	0.006196	0.000970	1.000000	0.000014	0.000077	0.000012	0.564417	-0.594940	0.572259	0.806011	0.546891	-0.226398	-0.178270	0.589030	0.788203
11439		5.686761	-2.283489	7.868908	0.000075	0.005020	-0.000302	1.000000	0.000001	0.000063	-0.000004	0.564391	-0.594940	0.572284	0.806033	0.546853	-0.226413	-0.178253	0.589066	0.788180
11440		5.691899	-2.261266	7.876310	0.000747	0.005331	0.000279	1.000000	0.000009	0.000067	0.000003	0.564517	-0.594817	0.572287	0.805921	0.547007	-0.226437	-0.178357	0.589046	0.788171
11441		5.693897	-2.273962	7.844429	-0.000041	0.006185	0.001945	1.000000	-0.000001	0.000077	0.000024	0.564767	-0.594613	0.572253	0.805714	0.547285	-0.226505	-0.178503	0.588995	0.788176
11442		5.700260	-2.272846	7.863377	0.001638	0.008692	-0.000348	1.000000	0.000020	0.000109	-0.000004	0.564891	-0.594552	0.572194	0.805611	0.547437	-0.226502	-0.178573	0.588915	0.788220
11443		5.699313	-2.264945	7.853300	0.002297	0.010401	0.000354	1.000000	0.000029	0.000130	0.000004	0.565142	-0.594417	0.572087	0.805403	0.547743	-0.226503	-0.178720	0.588767	0.788298
11444		5.693588	-2.265028	7.845810	0.001767	0.008119	-0.001134	1.000000	0.000022	0.000101	-0.000014	0.565220	-0.594377	0.572051	0.805332	0.547858	-0.226475	-0.178792	0.588699	0.788332
11445		5.693558	-2.285359	7.858487	0.004288	0.010150	-0.000825	1.000000	0.000054	0.000127	-0.000010	0.565267	-0.594406	0.571975	0.805286	0.547960	-0.226393	-0.178850	0.588576	0.788410
11446		5.676393	-2.273174	7.866327	0.006808	0.012181	-0.000517	1.000000	0.000085	0.000152	-0.000006	0.565368	-0.594435	0.571844	0.805196	0.548137	-0.226287	-0.178936	0.588382	0.788536
11447		5.700311	-2.253004	7.866212	0.002839	0.009293	0.000135	1.000000	0.000035	0.000116	0.000002	0.565756	-0.594158	0.571749	0.804859	0.548631	-0.226289	-0.179227	0.588201	0.788604
11448		5.676492	-2.271294	7.878398	0.001663	0.007885	0.000990	1.000000	0.000021	0.000099	0.000012	0.566226	-0.593791	0.571664	0.804455	0.549198	-0.226348	-0.179553	0.588042	0.788649
11449		5.689832	-2.282050	7.873751	0.001779	0.008710	0.000325	1.000000	0.000022	0.000109	0.000004	0.566216	-0.593846	0.571617	0.804470	0.549186	-0.226325	-0.179522	0.587997	0.788689
11450		5.697888	-2.265364	7.869885	0.003771	0.008459	-0.000853	1.000000	0.000047	0.000106	-0.000011	0.566326	-0.593794	0.571562	0.804369	0.549351	-0.226282	-0.179623	0.587896	0.788742
11451		5.681741	-2.289050	7.879008	0.001546	0.007059	0.001654	1.000000	0.000019	0.000088	0.000021	0.566828	-0.593376	0.571499	0.803928	0.549978	-0.226326	-0.180015	0.587732	0.788775
11452		5.678616	-2.267701	7.868909	0.002595	0.007050	0.000002	1.000000	0.000032	0.000088	0.000000	0.566758	-0.593454	0.571488	0.803985	0.549914	-0.226279	-0.179983	0.587713	0.788796
11453		5.681394	-2.260245	7.899796	0.000991	0.007572	0.000405	1.000000	0.000012	0.000095	0.000005	0.567028	-0.593248	0.571433	0.803754	0.550236	-0.226317	-0.180161	0.587620	0.788825
11454		5.680500	-2.259223	7.868564	0.001132	0.007592	0.001082	1.000000	0.000014	0.000095	0.000014	0.567304	-0.593040	0.571375	0.803519	0.550563	-0.226355	-0.180341	0.587523	0.788856
11455		5.697930	-2.269580	7.872705	0.001404	0.007039	0.000975	1.000000	0.000018	0.000088	0.000012	0.567593	-0.592809	0.571328	0.803270	0.550911	-0.226394	-0.180542	0.587431	0.788879
11456		5.686877	-2.285253	7.879019	0.002584	0.006456	-0.001461	1.000000	0.000032	0.000081	-0.000018	0.568036	-0.592414	0.571297	0.802860	0.551517	-0.226375	-0.180972	0.587260	0.788907
11457		5.683364	-2.264672	7.901137	0.001418	0.005641	0.000856	1.000000	0.000018	0.000071	0.000011	0.568174	-0.592287	0.571292	0.802735	0.551693	-0.226386	-0.181092	0.587222	0.788908
11458		5.679131	-2.257589	7.881615	0.000319	0.007260	-0.000179	1.000000	0.000004	0.000091	-0.000002	0.567943	-0.592517	0.571283	0.802949	0.551387	-0.226373	-0.180868	0.587278	0.788918
11459		5.685494	-2.263042	7.879511	-0.000597	0.004707	-0.000892	1.000000	-0.000007	0.000059	-0.000011	0.568124	-0.592326	0.571302	0.802784	0.551616	-0.226402	-0.181036	0.587256	0.788896
11460		5.704818	-2.259430	7.892434	-0.000042	0.004193	0.000356	1.000000	-0.000001	0.000052	0.000004	0.568033	-0.592380	0.571336	0.802870	0.551475	-0.226440	-0.180939	0.587334	0.788860
11461		5.679311	-2.271578	7.882935	-0.002912	-0.000312	0.002042	1.000000	-0.000036	-0.000004	0.000026	0.568166	-0.592150	0.571442	0.802749	0.551604	-0.226553	-0.181056	0.587444	0.788751
11462		5.697547	-2.288963	7.865356	0.000619	0.003912	-0.000523	1.000000	0.000008	0.000049	-0.000007	0.568422	-0.591881	0.571466	0.802511	0.551939	-0.226580	-0.181306	0.587401	0.788726
11463		5.699076	-2.260255	7.884748	0.003114	0.006747	-0.001556	1.000000	0.000039	0.000084	-0.000019	0.568233	-0.592060	0.571469	0.802672	0.551734	-0.226511	-0.181190	0.587413	0.788744
11464		5.672734	-2.271327	7.876156	0.002064	0.006757	0.000094	1.000000	0.000026	0.000084	0.000001	0.568359	-0.591964	0.571443	0.802559	0.551898	-0.226510	-0.181292	0.587356	0.788763
11465		5.674145	-2.284476	7.876834	0.001665	0.005892	-0.000595	1.000000	0.000021	0.000074	-0.000007	0.568286	-0.592025	0.571452	0.802620	0.551819	-0.226488	-0.181251	0.587368	0.788763
11466		5.682389	-2.269032	7.904624	-0.000310	0.002756	-0.001119	1.000000	-0.000004	0.000034	-0.000014	0.568376	-0.591879	0.571514	0.802527	0.551948	-0.226505	-0.181382	0.587395	0.788713
11467		5.690308	-2.273787	7.869480	-0.002689	0.000745	-0.000751	1.000000	-0.000034	0.000009	-0.000009	0.568464	-0.591701	0.571611	0.802443	0.552037	-0.226585	-0.181479	0.587490	0.788619
11468		5.690706	-2.266533	7.858274	0.000357	0.005057	0.001044	1.000000	0.000004	0.000063	0.000013	0.568611	-0.591558	0.571612	0.802316	0.552201	-0.226634	-0.181577	0.587480	0.788604
11469		5.699854	-2.285106	7.855883	0.003518	0.005621	-0.002447	1.000000	0.000044	0.000070	-0.000031	0.568950	-0.591237	0.571607	0.801988	0.552700	-0.226581	-0.181964	0.587335	0.788623
11470		5.680016	-2.267338	7.874697	0.001651	0.007289	-0.000478	1.000000	0.000021	0.000091	-0.000006	0.569081	-0.591143	0.571573	0.801874	0.552863	-0.226585	-0.182058	0.587275	0.788647
11471		5.670832	-2.268132	7.857914	0.001261	0.007017	0.000294	1.000000	0.000016	0.000088	0.000004	0.569142	-0.591110	0.571547	0.801824	0.552933	-0.226591	-0.182086	0.587242	0.788664
11472		5.689687	-2.264309	7.871250	0.001003	0.006173	0.000282	1.000000	0.000013	0.000077	0.000004	0.568921	-0.591316	0.571554	0.802026	0.552645	-0.226579	-0.181887	0.587307	0.788662
11473		5.673154	-2.259803	7.857224	0.000060	0.006414	-0.000195	1.000000	0.000001	0.000080	-0.000002	0.569047	-0.591211	0.571538	0.801917	0.552793	-0.226601	-0.181973	0.587273	0.788667
11474		5.685053	-2.285644	7.875355	0.001135	0.005600	-0.000502	1.000000	0.000014	0.000070	-0.000006	0.569044	-0.591206	0.571545	0.801919	0.552789	-0.226605	-0.181974	0.587281	0.788661
11475		5.680932	-2.278136	7.855904	0.003926	0.007077	-0.000298	1.000000	0.000049	0.000088	-0.000004	0.569178	-0.591107	0.571514	0.801791	0.552994	-0.226561	-0.182122	0.587188	0.788696
11476		5.690908	-2.247364	7.860842	0.000337	0.003871	-0.001881	1.000000	0.000004	0.000048	-0.000024	0.569146	-0.591091	0.571563	0.801809	0.552969	-0.226558	-0.182140	0.587229	0.788662
11477		5.685180	-2.255285	7.864106	0.000355	0.005056	0.001041	1.000000	0.000004	0.000063	0.000013	0.568869	-0.591328	0.571594	0.802061	0.552604	-0.226556	-0.181896	0.587334	0.788640
11478		5.678284	-2.270972	7.878973	-0.000175	0.004765	0.001136	1.000000	-0.000002	0.000060	0.000014	0.568866	-0.591312	0.571614	0.802066	0.552585	-0.226583	-0.181884	0.587367	0.788618
11479		5.684554	-2.282932	7.856001	0.001937	0.005338	-0.000704	1.000000	0.000024	0.000067	-0.000009	0.568801	-0.591356	0.571632	0.802115	0.552526	-0.226552	-0.181869	0.587378	0.788613
11480		5.685923	-2.254284	7.875447	0.001252	0.006424	-0.001170	1.000000	0.000016	0.000080	-0.000015	0.568746	-0.591409	0.571632	0.802161	0.552470	-0.226526	-0.181840	0.587377	0.788621
11481		5.691135	-2.273592	7.864126	0.001017	0.004775	0.000163	1.000000	0.000013	0.000060	0.000002	0.568803	-0.591337	0.571650	0.802105	0.552548	-0.226533	-0.181907	0.587376	0.788606
11482		5.691420	-2.259314	7.874122	0.001017	0.004775	0.000162	1.000000	0.000013	0.000060	0.000002	0.568771	-0.591347	0.571672	0.802132	0.552507	-0.226540	-0.181889	0.587406	0.788588
11483		5.685526	-2.267279	7.877488	-0.000198	0.005569	-0.000209	1.000000	-0.000002	0.000070	-0.000003	0.568632	-0.591465	0.571687	0.802263	0.552308	-0.226559	-0.181746	0.587473	0.788571
11484		5.687058	-2.280943	7.877947	0.000635	0.005096	0.002395	1.000000	0.000008	0.000064	0.000030	0.568498	-0.591583	0.571700	0.802395	0.552102	-0.226597	-0.181586	0.587548	0.788552
11485		5.693168	-2.250999	7.873853	0.002459	0.005036	-0.002260	1.000000	0.000031	0.000063	-0.000028	0.568717	-0.591360	0.571712	0.802178	0.552434	-0.226556	-0.181857	0.587461	0.788554
