// Start Time: Unknown
// Update Rate: 40.0Hz
// Filter Profile: human (46.1)
// Firmware Version: 4.3.4
PacketCounter	SampleTimeFine	Acc_X	Acc_Y	Acc_Z	Gyr_X	Gyr_Y	Gyr_Z	OriInc_q0	OriInc_q1	OriInc_q2	OriInc_q3	Mat[1][1]	Mat[2][1]	Mat[3][1]	Mat[1][2]	Mat[2][2]	Mat[3][2]	Mat[1][3]	Mat[2][3]	Mat[3][3]
10839		8.159805	-2.673411	4.943489	0.178380	0.007771	0.106333	0.999997	0.002230	0.000097	0.001329	0.298807	0.481447	0.823968	-0.540209	0.797095	-0.269841	-0.786695	-0.364484	0.498260
10840		8.399591	-2.366687	5.179438	0.056675	-0.039339	0.113295	0.999999	0.000708	-0.000492	0.001416	0.296501	0.483343	0.823691	-0.542166	0.795211	-0.271469	-0.786221	-0.366087	0.497833
10841		8.933006	-2.963096	5.202046	-0.088489	-0.104680	0.052123	0.999998	-0.001106	-0.001309	0.000652	0.293707	0.483312	0.824709	-0.540853	0.795402	-0.273521	-0.788172	-0.365711	0.495016
10842		8.926894	-3.341119	5.175038	0.078533	-0.147552	0.029408	0.999998	0.000982	-0.001844	0.000368	0.290351	0.482393	0.826434	-0.542671	0.794341	-0.273003	-0.788165	-0.369215	0.492418
10843		8.611748	-2.859453	5.233421	0.178140	-0.169218	0.060131	0.999995	0.002227	-0.002115	0.000752	0.286117	0.481919	0.828186	-0.546644	0.791961	-0.271988	-0.786967	-0.374902	0.490031
10844		8.347078	-2.962689	5.088694	0.024443	-0.183749	0.093277	0.999997	0.000306	-0.002297	0.001166	0.281163	0.481979	0.829845	-0.547814	0.790603	-0.273580	-0.787938	-0.377681	0.486323
10845		8.355759	-3.323556	4.565689	-0.021408	-0.198102	0.082410	0.999996	-0.000268	-0.002476	0.001030	0.276065	0.481703	0.831715	-0.548006	0.789794	-0.275528	-0.789606	-0.379721	0.482011
10846		8.151551	-3.468712	4.147647	0.172079	-0.222057	0.057494	0.999994	0.002151	-0.002776	0.000719	0.270683	0.480712	0.834054	-0.551816	0.787410	-0.274743	-0.788815	-0.385876	0.478403
10847		7.974814	-3.271011	4.229010	0.361978	-0.274430	0.029726	0.999984	0.004525	-0.003430	0.000372	0.264413	0.478676	0.837231	-0.559111	0.783434	-0.271340	-0.785799	-0.396360	0.474783
10848		8.024921	-3.186120	4.527105	0.386951	-0.333236	-0.006380	0.999980	0.004837	-0.004165	-0.000080	0.257407	0.475504	0.841212	-0.566534	0.779494	-0.267261	-0.782803	-0.407780	0.470037
10849		8.122132	-3.323811	4.577034	0.338359	-0.362701	-0.053447	0.999981	0.004229	-0.004534	-0.000668	0.250389	0.471068	0.845814	-0.572728	0.776448	-0.262889	-0.780569	-0.418597	0.464207
10850		8.111786	-3.523827	4.519494	0.420737	-0.367399	-0.084450	0.999975	0.005259	-0.004592	-0.001056	0.243716	0.466109	0.850497	-0.580283	0.772733	-0.257207	-0.777093	-0.430843	0.458803
10851		8.346843	-3.437165	4.628188	0.520099	-0.381070	-0.118374	0.999966	0.006501	-0.004763	-0.001480	0.237083	0.460476	0.855426	-0.589550	0.768054	-0.250049	-0.772155	-0.445033	0.453566
10852		8.509799	-3.514295	4.640276	0.508877	-0.397448	-0.178129	0.999965	0.006361	-0.004968	-0.002227	0.231017	0.453563	0.860762	-0.598274	0.763890	-0.241950	-0.767267	-0.459077	0.447827
10853		8.613402	-3.745395	4.425673	0.558515	-0.414059	-0.268512	0.999957	0.006981	-0.005176	-0.003356	0.226043	0.444832	0.866619	-0.607377	0.759896	-0.231628	-0.761576	-0.474006	0.441950
10854		8.832130	-3.542333	4.448644	0.688477	-0.441318	-0.329553	0.999939	0.008606	-0.005516	-0.004119	0.221285	0.434763	0.872934	-0.618579	0.754582	-0.219011	-0.753919	-0.491515	0.435913
10855		9.023269	-3.148334	4.542789	0.740826	-0.476608	-0.334342	0.999931	0.009260	-0.005957	-0.004179	0.216052	0.424121	0.879456	-0.630712	0.748208	-0.205882	-0.745335	-0.510203	0.429150
10856		8.703899	-2.964551	4.627070	0.784112	-0.480557	-0.327118	0.999926	0.009801	-0.006007	-0.004089	0.210716	0.413625	0.885727	-0.643421	0.740815	-0.192882	-0.735941	-0.529252	0.422236
10857		8.111515	-2.365736	4.452092	0.796346	-0.475789	-0.307180	0.999925	0.009954	-0.005947	-0.003840	0.205415	0.403417	0.891661	-0.656476	0.732513	-0.180178	-0.725840	-0.548343	0.415303
10858		8.429123	-1.610629	3.858893	0.686695	-0.474922	-0.313052	0.999938	0.008584	-0.005936	-0.003913	0.200383	0.393116	0.897389	-0.667833	0.724994	-0.168472	-0.716830	-0.565547	0.407812
10859		10.011890	-1.061479	2.601217	0.540018	-0.413073	-0.426876	0.999950	0.006750	-0.005163	-0.005336	0.198837	0.381341	0.902797	-0.675618	0.720645	-0.155599	-0.709933	-0.579007	0.400932
10860		11.090519	-0.874854	1.858237	0.632541	-0.369157	-0.506250	0.999938	0.007907	-0.004614	-0.006328	0.199631	0.367662	0.908280	-0.684554	0.715550	-0.139189	-0.701094	-0.593980	0.394531
10861		11.344337	-0.160327	2.093475	0.638999	-0.387314	-0.460501	0.999940	0.007987	-0.004841	-0.005756	0.198812	0.353839	0.913932	-0.693964	0.709311	-0.123656	-0.692017	-0.609652	0.386571
10862		10.777214	0.200466	2.131616	0.474178	-0.376848	-0.311223	0.999964	0.005927	-0.004711	-0.003890	0.196094	0.341778	0.919095	-0.700536	0.704681	-0.112582	-0.686146	-0.621782	0.377611
10863		10.424843	0.607932	2.110050	0.136131	-0.369974	-0.111185	0.999987	0.001702	-0.004625	-0.001390	0.189925	0.332649	0.923728	-0.702407	0.703398	-0.108885	-0.685969	-0.628153	0.367248
10864		10.459556	0.150650	1.746706	-0.195173	-0.346287	-0.012220	0.999988	-0.002440	-0.004329	-0.000153	0.182764	0.324885	0.927926	-0.698536	0.707074	-0.109977	-0.691842	-0.628090	0.356171
10865		9.903097	-0.531477	1.417161	-0.263166	-0.265068	0.012621	0.999989	-0.003290	-0.003313	0.000158	0.176569	0.318391	0.931370	-0.693675	0.711567	-0.111743	-0.698311	-0.626338	0.346501
10866		8.807763	-0.934391	1.066315	-0.221874	-0.182703	0.051537	0.999993	-0.002773	-0.002284	0.000644	0.170974	0.313613	0.934031	-0.689402	0.715354	-0.113994	-0.703913	-0.624433	0.338513
10867		8.513596	-1.263983	0.457668	-0.207754	-0.084229	0.023307	0.999996	-0.002597	-0.001053	0.000291	0.167862	0.309743	0.935885	-0.684633	0.719695	-0.115395	-0.709295	-0.621368	0.332870
10868		9.114083	-1.658012	0.111883	-0.008854	-0.051430	-0.036578	1.000000	-0.000111	-0.000643	-0.000457	0.165695	0.305167	0.937773	-0.682992	0.721459	-0.114097	-0.711384	-0.621586	0.327969
10869		10.280736	-1.395094	0.363914	0.310956	-0.082510	-0.107187	0.999991	0.003887	-0.001031	-0.001340	0.163635	0.298787	0.940186	-0.686941	0.718524	-0.108785	-0.708050	-0.628052	0.322825
10870		10.513337	-0.991815	1.059009	0.466923	-0.138550	-0.123890	0.999980	0.005836	-0.001732	-0.001549	0.161216	0.291322	0.942943	-0.693358	0.713360	-0.101848	-0.702328	-0.637377	0.316995
10871		10.169609	-1.054181	1.461270	0.356774	-0.158862	-0.115040	0.999987	0.004460	-0.001986	-0.001438	0.157745	0.283404	0.945938	-0.698047	0.709563	-0.096180	-0.698460	-0.645137	0.309759
10872		10.070486	-1.263947	1.557974	0.256308	-0.107521	-0.112774	0.999993	0.003204	-0.001344	-0.001410	0.155198	0.276476	0.948406	-0.700809	0.707449	-0.091552	-0.696261	-0.650443	0.303552
10873		10.072082	-1.304278	1.513312	0.234859	-0.068168	-0.126794	0.999994	0.002936	-0.000852	-0.001585	0.154001	0.270013	0.950461	-0.702752	0.706128	-0.086736	-0.694567	-0.654581	0.298497
10874		9.602878	-1.402194	1.547035	0.268399	0.007450	-0.114731	0.999993	0.003355	0.000093	-0.001434	0.153592	0.265164	0.951892	-0.705568	0.703856	-0.082224	-0.691797	-0.658995	0.295198
10875		9.378051	-1.213724	1.591161	0.349278	0.025375	-0.109727	0.999989	0.004366	0.000317	-0.001372	0.153826	0.260801	0.953058	-0.709258	0.700702	-0.077268	-0.687961	-0.664078	0.292762
10876		9.540826	-0.929869	1.411627	0.291649	0.001662	-0.123945	0.999992	0.003646	0.000021	-0.001549	0.154180	0.256140	0.954265	-0.712192	0.698246	-0.072352	-0.684844	-0.668465	0.290076
10877		9.544286	-1.329607	1.180290	0.341707	-0.003805	-0.210040	0.999987	0.004271	-0.000048	-0.002625	0.155403	0.249822	0.955740	-0.716513	0.694535	-0.065041	-0.680044	-0.674692	0.286933
10878		9.749624	-1.085508	1.458216	0.589752	-0.034606	-0.279403	0.999967	0.007372	-0.000433	-0.003492	0.157673	0.241767	0.957438	-0.723366	0.688297	-0.054679	-0.672221	-0.683956	0.283412
10879		10.183646	-0.519010	1.925715	0.601433	-0.059134	-0.254009	0.999966	0.007518	-0.000739	-0.003175	0.159478	0.234333	0.958986	-0.731090	0.680810	-0.044780	-0.663381	-0.693964	0.279893
10880		9.831808	-0.851379	2.205261	0.500265	-0.060560	-0.218195	0.999976	0.006253	-0.000757	-0.002727	0.160379	0.227385	0.960507	-0.737580	0.674274	-0.036468	-0.655937	-0.702603	0.275854
10881		9.089037	-0.586647	2.287392	0.524063	-0.026363	-0.111838	0.999978	0.006551	-0.000330	-0.001398	0.160100	0.222888	0.961608	-0.744567	0.666846	-0.030602	-0.648065	-0.711081	0.272717
10882		9.299941	-0.011755	2.528175	0.446182	-0.022203	-0.013146	0.999984	0.005577	-0.000278	-0.000164	0.158292	0.220399	0.962480	-0.750412	0.660385	-0.027807	-0.641736	-0.717855	0.269923
10883		10.505932	0.160743	2.541954	0.208929	-0.051191	-0.033861	0.999996	0.002612	-0.000640	-0.000423	0.157129	0.217230	0.963391	-0.751789	0.658893	-0.025953	-0.640409	-0.720188	0.266842
10884		10.737730	-0.426739	2.323099	0.125417	-0.058265	-0.081257	0.999998	0.001568	-0.000728	-0.001016	0.157005	0.213173	0.964317	-0.751730	0.659059	-0.023300	-0.640509	-0.721248	0.263724
10885		9.953757	-0.555462	2.295608	0.305481	-0.060140	-0.038956	0.999992	0.003819	-0.000752	-0.000487	0.156056	0.209890	0.965191	-0.754788	0.655647	-0.020539	-0.637135	-0.725309	0.260740
10886		9.674523	0.085723	2.717636	0.412750	-0.073697	0.055152	0.999986	0.005159	-0.000921	0.000689	0.152352	0.207627	0.966271	-0.759696	0.649975	-0.019882	-0.632180	-0.731043	0.256758
10887		9.712980	0.475913	2.847561	0.214158	-0.109270	0.135517	0.999994	0.002677	-0.001366	0.001694	0.146816	0.206466	0.967376	-0.762587	0.646504	-0.022247	-0.630005	-0.734442	0.252365
10888		9.734622	0.356026	2.709110	0.002233	-0.109242	0.199388	0.999996	0.000028	-0.001366	0.002492	0.140324	0.206284	0.968378	-0.762215	0.646748	-0.027320	-0.631932	-0.734278	0.247987
10889		9.662214	0.072094	2.662035	-0.136945	-0.079429	0.255109	0.999993	-0.001712	-0.000993	0.003189	0.133653	0.207645	0.969031	-0.759414	0.649694	-0.034475	-0.636732	-0.731288	0.244522
10890		9.667606	-0.489283	2.526225	-0.175406	-0.061957	0.254635	0.999992	-0.002193	-0.000774	0.003183	0.127436	0.209546	0.969459	-0.756537	0.652625	-0.041616	-0.641413	-0.728129	0.241697
10891		9.728938	-0.561192	2.469960	-0.112839	-0.054995	0.222125	0.999995	-0.001410	-0.000687	0.002777	0.121989	0.211073	0.969828	-0.754478	0.654599	-0.047566	-0.644888	-0.725912	0.239104
10892		9.801526	-0.550588	2.545594	-0.091874	-0.080530	0.197813	0.999996	-0.001148	-0.001007	0.002473	0.116406	0.211835	0.970348	-0.752533	0.656416	-0.053025	-0.648185	-0.724047	0.235824
10893		9.770146	-0.727392	2.522438	-0.115018	-0.089931	0.180861	0.999996	-0.001438	-0.001124	0.002261	0.110879	0.212211	0.970913	-0.750725	0.658056	-0.058097	-0.651244	-0.722447	0.232277
10894		9.776868	-0.870642	2.438158	-0.127235	-0.061725	0.152569	0.999997	-0.001590	-0.000772	0.001907	0.106558	0.212759	0.971277	-0.748146	0.660573	-0.062620	-0.654922	-0.719984	0.229564
10895		9.755557	-0.955437	2.372952	-0.064996	-0.052695	0.137316	0.999998	-0.000812	-0.000659	0.001716	0.103255	0.213437	0.971485	-0.746275	0.662338	-0.066199	-0.657580	-0.718159	0.227673
10896		9.667055	-0.846935	2.445797	-0.065478	-0.047502	0.122327	0.999998	-0.000818	-0.000594	0.001529	0.099537	0.213897	0.971772	-0.745034	0.663374	-0.069703	-0.659557	-0.717065	0.225391
10897		9.719343	-0.824204	2.371157	-0.094143	-0.041701	0.107264	0.999998	-0.001177	-0.000521	0.001341	0.096428	0.214304	0.971996	-0.742924	0.665383	-0.073000	-0.662394	-0.715080	0.223373
10898		9.802728	-0.921078	2.352679	-0.109560	-0.032602	0.084472	0.999998	-0.001370	-0.000408	0.001056	0.094029	0.214481	0.972192	-0.740844	0.667411	-0.075589	-0.665063	-0.713134	0.221653
10899		9.705080	-0.976252	2.413080	-0.074448	-0.032213	0.072562	0.999999	-0.000931	-0.000403	0.000907	0.091665	0.214538	0.972405	-0.739365	0.668789	-0.077855	-0.667036	-0.711825	0.219926
10900		9.585684	-0.899002	2.576926	-0.049876	-0.026866	0.060759	0.999999	-0.000623	-0.000336	0.000759	0.090026	0.214768	0.972507	-0.737552	0.670558	-0.079810	-0.669263	-0.710089	0.218771
10901		9.414129	-0.947489	2.607654	-0.127586	-0.007820	0.037254	0.999999	-0.001595	-0.000098	0.000466	0.089381	0.214862	0.972546	-0.734710	0.673495	-0.081271	-0.672467	-0.707275	0.218059
10902		9.483192	-0.955092	2.535284	-0.172741	-0.007052	0.013549	0.999998	-0.002159	-0.000088	0.000169	0.088773	0.214507	0.972680	-0.731526	0.676805	-0.082494	-0.676010	-0.704217	0.216999
10903		9.748257	-1.133127	2.485411	-0.174529	-0.006773	-0.018613	0.999998	-0.002182	-0.000085	-0.000233	0.088545	0.213814	0.972853	-0.728018	0.680479	-0.083295	-0.679816	-0.700879	0.215914
10904		9.846774	-1.242209	2.466731	-0.080760	-0.028189	-0.027546	0.999999	-0.001010	-0.000352	-0.000344	0.088342	0.212649	0.973127	-0.726029	0.682605	-0.083254	-0.681965	-0.699164	0.214693
10905		9.700714	-0.981501	2.593750	-0.005370	-0.038173	-0.020081	1.000000	-0.000067	-0.000477	-0.000251	0.088206	0.211336	0.973425	-0.725408	0.683342	-0.082625	-0.682644	-0.698842	0.213579
10906		9.438848	-0.907338	2.717757	-0.062597	-0.053134	-0.023429	0.999999	-0.000782	-0.000664	-0.000293	0.087637	0.209630	0.973845	-0.724099	0.684774	-0.082243	-0.684105	-0.697953	0.211805
10907		9.444202	-1.093983	2.620977	-0.186210	-0.059969	-0.064261	0.999997	-0.002328	-0.000750	-0.000803	0.087571	0.207420	0.974325	-0.720308	0.688803	-0.081896	-0.688104	-0.694642	0.209725
10908		9.525643	-1.423096	2.413320	-0.134795	-0.055978	-0.101641	0.999998	-0.001685	-0.000700	-0.001271	0.088181	0.204774	0.974829	-0.717270	0.692129	-0.080507	-0.691193	-0.692116	0.207911
10909		9.624716	-1.220878	2.472302	-0.039844	-0.075248	-0.147678	0.999998	-0.000498	-0.000941	-0.001846	0.089806	0.200878	0.975491	-0.715649	0.694195	-0.077068	-0.692663	-0.691188	0.206101
10910		9.612209	-1.105251	2.388048	-0.033931	-0.088396	-0.190810	0.999996	-0.000424	-0.001105	-0.002385	0.091755	0.195959	0.976310	-0.714226	0.696140	-0.072601	-0.693875	-0.690644	0.203833
10911		9.749285	-1.130028	2.181489	-0.088550	-0.071972	-0.234284	0.999995	-0.001107	-0.000900	-0.002929	0.094913	0.190615	0.977066	-0.711637	0.699316	-0.067300	-0.696106	-0.688929	0.202023
10912		9.802420	-1.292734	1.943524	-0.004671	-0.038476	-0.269727	0.999994	-0.000058	-0.000481	-0.003372	0.098895	0.185256	0.977701	-0.710674	0.700879	-0.060918	-0.696536	-0.688802	0.200970
10913		9.784013	-0.901666	1.988350	0.144771	-0.004420	-0.282385	0.999992	0.001810	-0.000055	-0.003530	0.103463	0.180162	0.978180	-0.712459	0.699671	-0.053509	-0.694045	-0.691377	0.200748
10914		9.780678	-0.499277	2.135690	0.166472	0.004063	-0.252287	0.999993	0.002081	0.000051	-0.003154	0.107969	0.175764	0.978494	-0.714447	0.698138	-0.046570	-0.691309	-0.694054	0.200951
10915		9.620700	-0.383876	2.134253	0.087976	-0.002115	-0.217399	0.999996	0.001100	-0.000026	-0.002717	0.111709	0.172147	0.978717	-0.715105	0.697807	-0.041117	-0.690034	-0.695292	0.201054
10916		9.634755	-0.370369	1.982962	0.057981	0.005836	-0.196327	0.999997	0.000725	0.000073	-0.002454	0.115210	0.169038	0.978853	-0.715289	0.697884	-0.036329	-0.689267	-0.695977	0.201314
10917		9.745489	-0.414902	1.844589	0.123156	0.051111	-0.184484	0.999996	0.001539	0.000639	-0.002306	0.119211	0.166793	0.978759	-0.716671	0.696702	-0.031438	-0.687147	-0.697701	0.202590
10918		9.631894	-0.215584	1.956942	0.257919	0.046751	-0.152334	0.999993	0.003224	0.000584	-0.001904	0.122745	0.165010	0.978624	-0.720352	0.693102	-0.026516	-0.682661	-0.701699	0.203940
10919		9.418023	0.263165	2.290651	0.190574	0.036542	-0.145355	0.999995	0.002382	0.000457	-0.001817	0.125402	0.163219	0.978588	-0.723267	0.690204	-0.022435	-0.679087	-0.704967	0.204604
10920		9.521749	0.238208	2.251054	0.013719	0.046419	-0.098892	0.999999	0.000171	0.000580	-0.001236	0.127852	0.162418	0.978404	-0.722961	0.690594	-0.020169	-0.678956	-0.704769	0.205716
10921		9.805043	0.088443	2.113152	-0.042829	0.057600	-0.058716	0.999999	-0.000535	0.000720	-0.000734	0.129865	0.162338	0.978152	-0.721842	0.691798	-0.018978	-0.679764	-0.703607	0.207023
10922		10.099097	-0.059523	2.132558	0.065374	0.050145	-0.056142	0.999999	0.000817	0.000627	-0.000702	0.131859	0.162197	0.977909	-0.722463	0.691195	-0.017227	-0.678720	-0.704231	0.208322
10923		9.952203	0.132293	2.364140	0.043776	0.023676	-0.067560	0.999999	0.000547	0.000296	-0.000845	0.133332	0.161540	0.977818	-0.722840	0.690840	-0.015566	-0.678030	-0.704730	0.208878
10924		9.771721	-0.048951	2.277575	-0.063446	-0.000134	-0.071550	0.999999	-0.000793	-0.000002	-0.000894	0.134600	0.160416	0.977829	-0.721322	0.692452	-0.014308	-0.679395	-0.703404	0.208916
10925		9.651807	-0.204692	2.100309	0.017049	0.015997	-0.038743	1.000000	0.000213	0.000200	-0.000484	0.135578	0.159950	0.977770	-0.721272	0.692525	-0.013275	-0.679254	-0.703438	0.209258
10926		9.790013	0.175591	2.197977	0.068941	0.025178	0.008983	1.000000	0.000862	0.000315	0.000112	0.136001	0.160660	0.977595	-0.722210	0.691548	-0.013178	-0.678171	-0.704237	0.210081
10927		9.961795	0.240606	2.188981	-0.011267	0.021440	0.037428	1.000000	-0.000141	0.000268	0.000468	0.135561	0.161742	0.977478	-0.722028	0.691716	-0.014324	-0.678453	-0.703824	0.210552
10928		9.763657	0.075757	2.167813	-0.100805	0.015387	0.030301	0.999999	-0.001260	0.000192	0.000379	0.135098	0.162500	0.977416	-0.720352	0.693430	-0.015719	-0.680325	-0.701960	0.210738
10929		9.554719	-0.279670	2.021795	-0.151112	0.037128	0.016287	0.999998	-0.001889	0.000464	0.000204	0.135131	0.163545	0.977237	-0.717844	0.695991	-0.017215	-0.682964	-0.699178	0.211450
10930		9.570055	-0.351899	1.953967	-0.116789	0.053172	0.018026	0.999999	-0.001460	0.000665	0.000225	0.135762	0.164673	0.976960	-0.715675	0.698196	-0.018232	-0.685112	-0.696710	0.212641
10931		9.770773	-0.499145	1.885958	-0.045776	0.056893	0.002609	1.000000	-0.000572	0.000711	0.000033	0.136595	0.165723	0.976667	-0.714801	0.699079	-0.018650	-0.685858	-0.695575	0.213949
10932		9.743093	-0.315725	2.128595	0.028572	0.054628	0.017802	1.000000	0.000357	0.000683	0.000223	0.137339	0.166935	0.976356	-0.715097	0.698771	-0.018885	-0.685401	-0.695595	0.215344
10933		9.635485	-0.193539	2.345793	-0.012082	0.031133	0.028458	1.000000	-0.000151	0.000389	0.000356	0.137470	0.167740	0.976199	-0.714723	0.699137	-0.019484	-0.685765	-0.695033	0.215998
10934		9.613689	-0.346961	2.325905	-0.093529	0.035012	0.011721	0.999999	-0.001169	0.000438	0.000147	0.137565	0.168655	0.976028	-0.713154	0.700706	-0.020566	-0.687377	-0.693229	0.216670
10935		9.679667	-0.529131	2.204718	-0.109798	0.042838	-0.018975	0.999999	-0.001372	0.000535	-0.000237	0.138352	0.168863	0.975881	-0.711127	0.702757	-0.020786	-0.689317	-0.691099	0.217310
10936		9.807946	-0.771427	2.121523	-0.086750	0.043930	-0.068409	0.999999	-0.001084	0.000549	-0.000855	0.140297	0.168490	0.975668	-0.709292	0.704640	-0.019693	-0.690813	-0.689270	0.218368
10937		10.031653	-1.038585	1.992876	0.035023	0.046020	-0.120390	0.999999	0.000438	0.000575	-0.001505	0.143189	0.167227	0.975465	-0.709361	0.704648	-0.016673	-0.690148	-0.689570	0.219522
10938		10.017991	-0.966732	2.097809	0.171198	0.054140	-0.137826	0.999996	0.002140	0.000677	-0.001723	0.146415	0.165857	0.975220	-0.711745	0.702326	-0.012587	-0.687010	-0.692265	0.220878
10939		9.677541	-0.922201	2.213340	0.252193	0.056004	-0.112862	0.999994	0.003152	0.000700	-0.001411	0.149516	0.164775	0.974933	-0.715428	0.698636	-0.008359	-0.682501	-0.696245	0.222342
10940		9.446886	-0.843688	2.302102	0.310682	0.058630	-0.072941	0.999992	0.003884	0.000733	-0.000912	0.151694	0.164545	0.974635	-0.720381	0.693560	-0.004970	-0.676786	-0.701355	0.223744
10941		9.574733	-0.513626	2.247953	0.336852	0.064653	-0.055313	0.999991	0.004211	0.000808	-0.000691	0.153849	0.164885	0.974240	-0.725753	0.687952	-0.001823	-0.670532	-0.706777	0.225506
10942		9.541542	-0.279740	2.219771	0.344685	0.049229	-0.072300	0.999990	0.004309	0.000615	-0.000904	0.155971	0.164593	0.973952	-0.731117	0.682249	0.001787	-0.664184	-0.712352	0.226748
10943		9.562903	-0.022901	2.283688	0.383876	0.031007	-0.087438	0.999988	0.004798	0.000388	-0.001093	0.158051	0.163776	0.973754	-0.737026	0.675838	0.005958	-0.657124	-0.718624	0.227524
10944		9.785398	0.267842	2.461940	0.313847	0.013797	-0.091014	0.999992	0.003923	0.000172	-0.001138	0.160102	0.162506	0.973632	-0.741617	0.670749	0.009997	-0.651438	-0.723663	0.227905
10945		9.909472	0.142113	2.563783	0.215208	-0.016072	-0.097091	0.999996	0.002690	-0.000201	-0.001214	0.161585	0.160555	0.973711	-0.744605	0.667369	0.013523	-0.647653	-0.727215	0.227386
10946		9.842808	0.035385	2.640831	0.141068	-0.045808	-0.101549	0.999997	0.001763	-0.000573	-0.001269	0.162548	0.158073	0.973956	-0.746462	0.665220	0.016615	-0.645269	-0.729722	0.226126
10947		9.699285	-0.036895	2.515130	0.128991	-0.038752	-0.074588	0.999998	0.001612	-0.000484	-0.000932	0.163254	0.156094	0.974157	-0.748137	0.663270	0.019097	-0.643148	-0.731921	0.225061
10948		9.628718	0.136024	2.491847	0.104195	-0.028462	-0.022461	0.999999	0.001302	-0.000356	-0.000281	0.163356	0.154970	0.974320	-0.749479	0.661714	0.020410	-0.641558	-0.733566	0.224242
10949		9.717886	0.217057	2.504728	0.024518	-0.045590	0.020247	1.000000	0.000306	-0.000570	0.000253	0.162292	0.154534	0.974567	-0.749880	0.661271	0.020020	-0.641359	-0.734057	0.223201
10950		9.787481	0.277162	2.479715	-0.022087	-0.051485	0.053972	1.000000	-0.000276	-0.000644	0.000675	0.160223	0.154381	0.974933	-0.749711	0.661508	0.018460	-0.642076	-0.733876	0.221730
10951		9.803188	0.298017	2.416817	-0.085625	-0.056410	0.038367	0.999999	-0.001070	-0.000705	0.000480	0.158472	0.154196	0.975249	-0.748522	0.662896	0.016820	-0.643895	-0.732661	0.220469
10952		9.920486	0.233265	2.323864	-0.057581	-0.053428	0.010744	1.000000	-0.000720	-0.000668	0.000134	0.157357	0.153301	0.975570	-0.747532	0.664027	0.016229	-0.645317	-0.731824	0.219087
10953		9.858397	0.328389	2.417726	-0.049845	-0.056452	0.003316	1.000000	-0.000623	-0.000706	0.000041	0.156296	0.152347	0.975890	-0.746705	0.664968	0.015782	-0.646532	-0.731169	0.217690
10954		9.622844	0.296535	2.402938	-0.101714	-0.051742	-0.005702	0.999999	-0.001271	-0.000647	-0.000071	0.155557	0.151456	0.976147	-0.745011	0.666878	0.015253	-0.648661	-0.729613	0.216574
10955		9.593500	0.106565	2.275111	-0.130030	-0.050711	-0.015408	0.999998	-0.001625	-0.000634	-0.000193	0.155159	0.150170	0.976409	-0.742680	0.669478	0.015053	-0.651424	-0.727495	0.215403
10956		9.717405	0.160170	2.142038	-0.089877	-0.044025	-0.010410	0.999999	-0.001123	-0.000550	-0.000130	0.154394	0.149398	0.976649	-0.741357	0.670953	0.014562	-0.653110	-0.726293	0.214349
10957		9.736475	0.144619	2.190828	-0.071659	-0.036487	-0.021592	0.999999	-0.000896	-0.000456	-0.000270	0.154274	0.148478	0.976808	-0.740113	0.672322	0.014696	-0.654548	-0.725215	0.213613
10958		9.837558	0.018483	2.188884	-0.046969	-0.045012	-0.029227	1.000000	-0.000587	-0.000563	-0.000365	0.154093	0.147291	0.977016	-0.739263	0.673247	0.015100	-0.655549	-0.724599	0.212629
10959		9.860535	0.018848	2.246652	-0.008881	-0.036100	-0.034459	1.000000	-0.000111	-0.000451	-0.000431	0.154131	0.146237	0.977169	-0.739060	0.673454	0.015789	-0.655769	-0.724620	0.211878
10960		9.760941	0.104659	2.301010	0.005721	-0.048943	-0.044062	1.000000	0.000072	-0.000612	-0.000551	0.154024	0.144571	0.977433	-0.739020	0.673473	0.016843	-0.655840	-0.724937	0.210572
10961		9.812238	0.133666	2.214122	-0.030071	-0.032782	-0.046347	1.000000	-0.000376	-0.000410	-0.000579	0.154305	0.143341	0.977570	-0.738425	0.674102	0.017713	-0.656443	-0.724596	0.209864
10962		9.704784	-0.021271	2.147942	-0.041385	-0.022434	-0.035556	1.000000	-0.000517	-0.000280	-0.000444	0.154518	0.142460	0.977665	-0.737684	0.674899	0.018247	-0.657226	-0.724028	0.209375
10963		9.740326	-0.071697	2.124820	0.004590	-0.026950	-0.030831	1.000000	0.000057	-0.000337	-0.000385	0.154728	0.141367	0.977791	-0.737592	0.674975	0.019132	-0.657280	-0.724171	0.208709
10964		9.744686	0.065608	2.171327	0.021370	-0.035858	-0.038716	1.000000	0.000267	-0.000448	-0.000484	0.154961	0.140035	0.977945	-0.737753	0.674766	0.020279	-0.657045	-0.724624	0.207874
10965		9.777914	0.076084	2.170565	-0.005697	-0.040170	-0.047852	1.000000	-0.000071	-0.000502	-0.000598	0.155054	0.138540	0.978144	-0.737548	0.674958	0.021317	-0.657253	-0.724733	0.206835
10966		9.815310	-0.006771	2.149820	0.010056	-0.017795	-0.029280	1.000000	0.000126	-0.000222	-0.000366	0.155327	0.137741	0.978213	-0.737618	0.674857	0.022098	-0.657110	-0.724980	0.206424
10967		9.741015	0.006425	2.265904	-0.002196	-0.016941	-0.005791	1.000000	-0.000027	-0.000212	-0.000072	0.155196	0.137167	0.978315	-0.737478	0.675001	0.022350	-0.657298	-0.724954	0.205915
10968		9.725441	0.025631	2.278884	-0.046483	-0.014532	0.001025	1.000000	-0.000581	-0.000182	0.000013	0.154847	0.136976	0.978397	-0.736779	0.675776	0.021998	-0.658164	-0.724268	0.205563
10969		9.712124	-0.081178	2.062720	-0.035034	-0.006344	0.007080	1.000000	-0.000438	-0.000079	0.000089	0.154683	0.136887	0.978435	-0.736180	0.676436	0.021748	-0.658872	-0.723668	0.205407
10970		9.679072	0.000177	2.211877	-0.011255	-0.005898	0.005998	1.000000	-0.000141	-0.000074	0.000075	0.154343	0.137019	0.978470	-0.736141	0.676491	0.021386	-0.658996	-0.723592	0.205277
10971		9.657608	0.069628	2.317763	-0.042757	-0.011482	0.004429	1.000000	-0.000534	-0.000144	0.000055	0.153906	0.137081	0.978530	-0.735611	0.677083	0.020847	-0.659689	-0.723026	0.205046
10972		9.686532	0.002940	2.274398	-0.110040	-0.017280	-0.006182	0.999999	-0.001375	-0.000216	-0.000077	0.153789	0.136855	0.978580	-0.733883	0.678970	0.020379	-0.661638	-0.721298	0.204854
10973		9.709461	-0.138242	2.158048	-0.064269	0.003480	-0.005810	1.000000	-0.000803	0.000043	-0.000073	0.153946	0.136927	0.978546	-0.732880	0.680060	0.020138	-0.662712	-0.720257	0.205044
10974		9.663516	0.022131	2.191714	-0.015857	0.019289	-0.003104	1.000000	-0.000198	0.000241	-0.000039	0.154276	0.137358	0.978433	-0.732711	0.680245	0.020035	-0.662822	-0.720000	0.205589
10975		9.662169	0.072801	2.234452	-0.054260	0.010743	0.002880	1.000000	-0.000678	0.000134	0.000036	0.154345	0.137725	0.978371	-0.731924	0.681105	0.019587	-0.663676	-0.719116	0.205929
10976		9.752422	-0.013917	2.155266	-0.058093	0.012633	-0.014067	1.000000	-0.000726	0.000158	-0.000176	0.154858	0.137859	0.978271	-0.730988	0.682109	0.019590	-0.664586	-0.718138	0.206404
10977		9.831510	0.012702	2.135651	0.000533	0.014051	-0.024990	1.000000	0.000007	0.000176	-0.000312	0.155646	0.137668	0.978173	-0.730901	0.682181	0.020290	-0.664498	-0.718106	0.206800
10978		9.829007	0.041570	2.169491	0.042185	0.022096	-0.024585	1.000000	0.000527	0.000276	-0.000307	0.156551	0.137600	0.978038	-0.731486	0.681526	0.021203	-0.663641	-0.718741	0.207346
10979		9.781258	0.174542	2.319237	0.018303	0.014426	-0.024124	1.000000	0.000229	0.000180	-0.000302	0.157205	0.137644	0.977927	-0.731840	0.681128	0.021776	-0.663096	-0.719110	0.207810
10980		9.729341	0.055077	2.234351	-0.051201	0.020547	-0.027766	1.000000	-0.000640	0.000257	-0.000347	0.157912	0.137729	0.977801	-0.731028	0.681993	0.021996	-0.663823	-0.718274	0.208378
10981		9.752712	0.000449	2.157670	-0.023805	0.027043	-0.016567	1.000000	-0.000298	0.000338	-0.000207	0.158565	0.138033	0.977652	-0.730668	0.682373	0.022164	-0.664064	-0.717854	0.209056
10982		9.790646	0.029177	2.144736	-0.018364	0.039501	-0.004672	1.000000	-0.000230	0.000494	-0.000058	0.159369	0.138677	0.977430	-0.730368	0.682692	0.022225	-0.664202	-0.717426	0.210085
10983		9.810107	-0.078435	2.159017	-0.010351	0.032655	0.000332	1.000000	-0.000129	0.000408	0.000004	0.159862	0.139415	0.977245	-0.730323	0.682746	0.022068	-0.664133	-0.717232	0.210963
10984		9.830368	0.065360	2.149899	0.042139	0.029941	0.007117	1.000000	0.000527	0.000374	0.000089	0.160078	0.140242	0.977091	-0.731184	0.681828	0.021929	-0.663132	-0.717944	0.211688
10985		9.753139	0.168871	2.292356	0.018706	0.019096	0.009536	1.000000	0.000234	0.000239	0.000119	0.160195	0.140930	0.976973	-0.731668	0.681316	0.021691	-0.662571	-0.718295	0.212257
10986		9.692202	0.066630	2.276293	-0.024277	0.019311	0.007386	1.000000	-0.000303	0.000241	0.000092	0.160281	0.141601	0.976862	-0.731440	0.681575	0.021215	-0.662801	-0.717916	0.212816
10987		9.653248	0.010785	2.227466	-0.006255	0.024114	0.009559	1.000000	-0.000078	0.000301	0.000119	0.160426	0.142303	0.976736	-0.731478	0.681546	0.020847	-0.662725	-0.717805	0.213429
10988		9.689834	0.009053	2.217568	0.000180	0.012845	0.007487	1.000000	0.000002	0.000161	0.000094	0.160540	0.142906	0.976629	-0.731689	0.681328	0.020581	-0.662463	-0.717893	0.213943
10989		9.705353	0.050090	2.164564	0.010707	0.010827	0.003235	1.000000	0.000134	0.000135	0.000040	0.160610	0.143429	0.976541	-0.732066	0.680928	0.020390	-0.662030	-0.718167	0.214363
10990		9.706185	0.050903	2.194683	0.009323	-0.003803	-0.005814	1.000000	0.000117	-0.000048	-0.000073	0.160512	0.143536	0.976541	-0.732394	0.680577	0.020348	-0.661691	-0.718479	0.214366
10991		9.735212	0.024416	2.209679	0.012175	0.001905	0.004757	1.000000	0.000152	0.000024	0.000059	0.160391	0.143816	0.976520	-0.732745	0.680204	0.020175	-0.661332	-0.718776	0.214479
10992		9.731592	-0.030205	2.252903	0.021903	0.004741	0.012264	1.000000	0.000274	0.000059	0.000153	0.160348	0.144260	0.976462	-0.733257	0.679658	0.020000	-0.660775	-0.719204	0.214761
10993		9.691037	0.002653	2.235947	0.014488	0.004811	0.010363	1.000000	0.000181	0.000060	0.000130	0.160310	0.144542	0.976426	-0.733570	0.679323	0.019877	-0.660435	-0.719464	0.214935
10994		9.678876	-0.008911	2.191345	0.006535	-0.000014	0.006314	1.000000	0.000082	-0.000000	0.000079	0.160073	0.144703	0.976441	-0.733769	0.679115	0.019650	-0.660273	-0.719627	0.214887
10995		9.711500	0.064939	2.188369	0.042040	0.012073	0.011141	1.000000	0.000525	0.000151	0.000139	0.159902	0.145306	0.976380	-0.734659	0.678159	0.019391	-0.659323	-0.720407	0.215189
10996		9.713418	0.098308	2.304501	0.027721	0.007058	0.019607	1.000000	0.000347	0.000088	0.000245	0.159566	0.145908	0.976345	-0.735311	0.677465	0.018931	-0.658677	-0.720938	0.215389
10997		9.759639	0.067024	2.345467	0.004521	-0.005449	0.002844	1.000000	0.000057	-0.000068	0.000036	0.159263	0.146058	0.976372	-0.735550	0.677213	0.018675	-0.658484	-0.721145	0.215288
10998		9.784320	-0.039558	2.239892	-0.010907	-0.000255	-0.005224	1.000000	-0.000136	-0.000003	-0.000065	0.159313	0.146057	0.976364	-0.735439	0.677333	0.018677	-0.658596	-0.721032	0.215324
10999		9.661606	0.004965	2.167341	0.064018	0.012570	-0.003909	1.000000	0.000800	0.000157	-0.000049	0.159515	0.146409	0.976278	-0.736618	0.676043	0.018973	-0.657228	-0.722171	0.215687
11000		9.631991	0.187660	2.283607	0.040752	0.003636	0.014520	1.000000	0.000509	0.000045	0.000182	0.159226	0.146849	0.976259	-0.737448	0.675144	0.018721	-0.656367	-0.722922	0.215795
11001		9.721518	0.140213	2.245342	-0.010600	0.000441	0.005145	1.000000	-0.000133	0.000006	0.000064	0.159097	0.146984	0.976260	-0.737353	0.675255	0.018498	-0.656505	-0.722791	0.215810
11002		9.787359	0.109359	2.172219	-0.002033	0.004727	-0.011576	1.000000	-0.000025	0.000059	-0.000145	0.159274	0.146915	0.976242	-0.737338	0.675266	0.018675	-0.656479	-0.722794	0.215879
11003		9.773863	0.129544	2.232341	0.010803	0.004463	-0.021270	1.000000	0.000135	0.000056	-0.000266	0.159707	0.146831	0.976184	-0.737579	0.674989	0.019144	-0.656103	-0.723070	0.216100
11004		9.744177	0.153673	2.295483	0.002472	-0.001517	-0.023725	1.000000	0.000031	-0.000019	-0.000297	0.160059	0.146595	0.976161	-0.737682	0.674864	0.019608	-0.655902	-0.723235	0.216158
11005		9.710905	0.115114	2.280862	-0.023614	0.004225	-0.024628	1.000000	-0.000295	0.000053	-0.000308	0.160475	0.146503	0.976107	-0.737382	0.675183	0.019890	-0.656137	-0.722955	0.216379
11006		9.767545	0.063560	2.283517	-0.021692	0.004498	-0.009099	1.000000	-0.000271	0.000056	-0.000114	0.160651	0.146597	0.976064	-0.737123	0.675466	0.019874	-0.656384	-0.722672	0.216574
11007		9.748590	0.070398	2.275197	-0.011669	0.002177	-0.002168	1.000000	-0.000146	0.000027	-0.000027	0.160720	0.146741	0.976031	-0.737049	0.675549	0.019802	-0.656451	-0.722565	0.216730
11008		9.714353	0.092117	2.267688	0.009356	0.007600	0.004586	1.000000	0.000117	0.000095	0.000057	0.160681	0.147006	0.975997	-0.737281	0.675300	0.019666	-0.656200	-0.722744	0.216892
11009		9.712820	0.173814	2.288441	0.020235	0.004639	0.017030	1.000000	0.000253	0.000058	0.000213	0.160508	0.147549	0.975944	-0.737819	0.674721	0.019336	-0.655637	-0.723174	0.217162
11010		9.721233	0.236752	2.360394	-0.008606	0.002292	0.019769	1.000000	-0.000108	0.000029	0.000247	0.160233	0.147949	0.975929	-0.737808	0.674747	0.018847	-0.655717	-0.723068	0.217274
11011		9.715926	0.178510	2.344184	-0.045635	-0.005717	0.006061	1.000000	-0.000570	-0.000071	0.000076	0.159946	0.148061	0.975959	-0.737184	0.675443	0.018344	-0.656489	-0.722395	0.217183
11012		9.751807	0.110002	2.234389	-0.043401	-0.006101	-0.004017	1.000000	-0.000543	-0.000076	-0.000050	0.160005	0.147982	0.975961	-0.736558	0.676128	0.018237	-0.657176	-0.721770	0.217181
11013		9.700868	0.089418	2.251277	-0.035762	-0.004033	-0.007528	1.000000	-0.000447	-0.000050	-0.000094	0.160082	0.147858	0.975967	-0.736018	0.676717	0.018203	-0.657762	-0.721243	0.217157
11014		9.739843	0.071625	2.253139	-0.030053	0.002702	-0.001745	1.000000	-0.000376	0.000034	-0.000022	0.160225	0.147930	0.975933	-0.735589	0.677186	0.018120	-0.658207	-0.720789	0.217317
11015		9.792390	0.085496	2.219341	-0.018213	0.001250	0.005382	1.000000	-0.000228	0.000016	0.000067	0.160048	0.148113	0.975934	-0.735385	0.677416	0.017791	-0.658478	-0.720535	0.217340
11016		9.776711	0.103072	2.265642	-0.007093	-0.000178	0.006884	1.000000	-0.000089	-0.000002	0.000086	0.159819	0.148439	0.975922	-0.735452	0.677353	0.017413	-0.658459	-0.720526	0.217423
11017		9.726518	0.094667	2.280900	-0.008696	0.004637	0.005572	1.000000	-0.000109	0.000058	0.000070	0.159750	0.148761	0.975884	-0.735457	0.677354	0.017138	-0.658470	-0.720459	0.217615
11018		9.693953	0.079917	2.276578	-0.000690	0.004597	0.007694	1.000000	-0.000009	0.000057	0.000096	0.159746	0.149025	0.975845	-0.735556	0.677251	0.016985	-0.658361	-0.720501	0.217804
11019		9.682826	0.164053	2.277865	-0.008797	0.001885	0.010864	1.000000	-0.000110	0.000024	0.000136	0.159503	0.149380	0.975830	-0.735576	0.677239	0.016561	-0.658397	-0.720439	0.217902
11020		9.726948	0.162484	2.240729	-0.025328	-0.001199	0.005599	1.000000	-0.000317	-0.000015	0.000070	0.159373	0.149563	0.975823	-0.735277	0.677572	0.016236	-0.658763	-0.720088	0.217957
11021		9.772661	0.082163	2.258579	-0.015656	0.000635	0.004093	1.000000	-0.000196	0.000008	0.000051	0.159412	0.149787	0.975783	-0.735185	0.677676	0.016080	-0.658856	-0.719944	0.218151
11022		9.736429	0.049685	2.320370	0.001863	-0.010795	0.001168	1.000000	0.000023	-0.000135	0.000015	0.159316	0.149591	0.975828	-0.735259	0.677593	0.016168	-0.658796	-0.720062	0.217940
11023		9.758240	0.051106	2.307882	-0.020537	-0.005810	0.005391	1.000000	-0.000257	-0.000073	0.000067	0.159108	0.149625	0.975857	-0.735009	0.677871	0.015903	-0.659126	-0.719794	0.217830
11024		9.675342	0.025849	2.242066	-0.002886	0.004644	0.006269	1.000000	-0.000036	0.000058	0.000078	0.159193	0.149808	0.975815	-0.735032	0.677847	0.015848	-0.659079	-0.719778	0.218022
11025		9.681822	0.122143	2.236023	0.014806	-0.001322	0.008207	1.000000	0.000185	-0.000017	0.000103	0.158959	0.149979	0.975827	-0.735371	0.677483	0.015664	-0.658757	-0.720085	0.217982
11026		9.711574	0.142606	2.272910	-0.003106	-0.008999	-0.000774	1.000000	-0.000039	-0.000112	-0.000010	0.158769	0.149902	0.975870	-0.735407	0.677446	0.015585	-0.658763	-0.720136	0.217796
11027		9.760049	0.092766	2.281803	-0.002204	-0.010532	-0.012297	1.000000	-0.000028	-0.000132	-0.000154	0.158736	0.149568	0.975926	-0.735391	0.677460	0.015787	-0.658790	-0.720193	0.217528
11028		9.778832	0.106808	2.302446	-0.005903	-0.002347	-0.014795	1.000000	-0.000074	-0.000029	-0.000185	0.159095	0.149282	0.975912	-0.735297	0.677551	0.016227	-0.658808	-0.720166	0.217562
11029		9.769826	0.046979	2.275983	-0.004835	-0.002030	-0.010302	1.000000	-0.000060	-0.000025	-0.000129	0.159252	0.149106	0.975913	-0.735238	0.677610	0.016449	-0.658836	-0.720148	0.217539
11030		9.707289	0.050598	2.259170	-0.003279	0.006926	-0.012771	1.000000	-0.000041	0.000087	-0.000160	0.159608	0.149176	0.975844	-0.735283	0.677555	0.016685	-0.658699	-0.720184	0.217830
11031		9.676648	0.084161	2.261373	0.011681	0.001975	-0.003457	1.000000	0.000146	0.000025	-0.000043	0.159724	0.149193	0.975823	-0.735528	0.677285	0.016842	-0.658397	-0.720435	0.217914
11032		9.734604	0.155058	2.244033	0.006465	0.004088	-0.006745	1.000000	0.000081	0.000051	-0.000084	0.159899	0.149236	0.975787	-0.735698	0.677096	0.017002	-0.658165	-0.720603	0.218060
11033		9.784304	0.151062	2.262712	0.009199	0.003082	-0.014125	1.000000	0.000115	0.000039	-0.000177	0.160253	0.149100	0.975750	-0.735870	0.676899	0.017422	-0.657887	-0.720817	0.218193
11034		9.745417	0.141828	2.280527	0.011473	-0.000664	-0.019027	1.000000	0.000143	-0.000008	-0.000238	0.160611	0.148882	0.975724	-0.736101	0.676634	0.017923	-0.657540	-0.721111	0.218267
11035		9.710593	0.093871	2.314584	0.004764	0.004476	-0.019348	1.000000	0.000060	0.000056	-0.000242	0.160992	0.148765	0.975680	-0.736221	0.676492	0.018333	-0.657312	-0.721268	0.218434
11036		9.749045	0.111374	2.298111	-0.008198	0.004405	-0.011126	1.000000	-0.000102	0.000055	-0.000139	0.161264	0.148746	0.975637	-0.736150	0.676565	0.018529	-0.657326	-0.721203	0.218605
11037		9.734682	0.076709	2.260176	-0.005636	0.001695	-0.009600	1.000000	-0.000070	0.000021	-0.000120	0.161376	0.148755	0.975618	-0.736139	0.676575	0.018605	-0.657311	-0.721192	0.218687
11038		9.702590	0.114228	2.278345	0.015404	0.004443	-0.005539	1.000000	0.000193	0.000056	-0.000069	0.161475	0.148872	0.975583	-0.736491	0.676188	0.018717	-0.656892	-0.721531	0.218831
11039		9.723360	0.150381	2.249594	0.010147	0.005753	-0.008381	1.000000	0.000127	0.000072	-0.000105	0.161740	0.149007	0.975519	-0.736793	0.675854	0.018925	-0.656488	-0.721816	0.219100
11040		9.742598	0.177564	2.269424	0.008583	0.001897	-0.009948	1.000000	0.000107	0.000024	-0.000124	0.161887	0.148996	0.975496	-0.736999	0.675623	0.019114	-0.656220	-0.722034	0.219185
11041		9.720794	0.194690	2.293255	-0.002998	0.000574	-0.008972	1.000000	-0.000037	0.000007	-0.000112	0.162076	0.149041	0.975458	-0.737083	0.675528	0.019254	-0.656079	-0.722114	0.219343
11042		9.706490	0.146030	2.287315	-0.014676	0.000669	-0.008329	1.000000	-0.000183	0.000008	-0.000104	0.162246	0.149024	0.975432	-0.736921	0.675702	0.019342	-0.656219	-0.721955	0.219448
11043		9.719434	0.104462	2.293761	-0.004761	0.002758	-0.002958	1.000000	-0.000060	0.000034	-0.000037	0.162306	0.149189	0.975397	-0.736973	0.675647	0.019291	-0.656146	-0.721972	0.219610
11044		9.692433	0.158121	2.272694	0.002651	0.003251	0.004480	1.000000	0.000033	0.000041	0.000056	0.162269	0.149453	0.975363	-0.737161	0.675446	0.019142	-0.655944	-0.722105	0.219775
11045		9.750554	0.195276	2.274580	-0.005220	0.000572	0.005050	1.000000	-0.000065	0.000007	0.000063	0.162130	0.149629	0.975359	-0.737182	0.675429	0.018922	-0.655954	-0.722085	0.219812
11046		9.769688	0.169939	2.270774	-0.011737	0.000222	0.002674	1.000000	-0.000147	0.000003	0.000033	0.162070	0.149796	0.975343	-0.737125	0.675497	0.018742	-0.656034	-0.721987	0.219896
11047		9.677877	0.174612	2.347478	-0.007251	-0.010949	-0.003420	1.000000	-0.000091	-0.000137	-0.000043	0.161949	0.149599	0.975394	-0.737079	0.675546	0.018770	-0.656115	-0.721982	0.219670
11048		9.713312	0.065078	2.259084	-0.053340	-0.008196	-0.009424	1.000000	-0.000667	-0.000102	-0.000118	0.161970	0.149366	0.975426	-0.736254	0.676448	0.018672	-0.657036	-0.721185	0.219535
11049		9.704460	-0.018825	2.144566	0.011045	0.003809	-0.000502	1.000000	0.000138	0.000048	-0.000006	0.162040	0.149569	0.975383	-0.736569	0.676105	0.018690	-0.656666	-0.721465	0.219724
11050		9.706415	0.127610	2.242773	0.048631	-0.002997	0.000767	1.000000	0.000608	-0.000037	0.000010	0.161967	0.149636	0.975385	-0.737490	0.675094	0.018896	-0.655649	-0.722397	0.219698
11051		9.679257	0.187359	2.265792	0.003750	-0.003201	-0.003571	1.000000	0.000047	-0.000040	-0.000045	0.161949	0.149586	0.975396	-0.737611	0.674960	0.018957	-0.655517	-0.722533	0.219645
11052		9.780026	0.105983	2.218316	-0.003161	-0.009620	-0.013746	1.000000	-0.000040	-0.000120	-0.000172	0.161964	0.149325	0.975433	-0.737623	0.674941	0.019154	-0.655500	-0.722604	0.219462
11053		9.824876	0.115627	2.254601	0.029088	-0.000777	-0.013574	1.000000	0.000364	-0.000010	-0.000170	0.162140	0.149221	0.975420	-0.738169	0.674332	0.019543	-0.654841	-0.723194	0.219486
11054		9.761752	0.143079	2.295074	0.031976	-0.004850	-0.014316	1.000000	0.000400	-0.000061	-0.000179	0.162247	0.149002	0.975435	-0.738732	0.673704	0.019964	-0.654180	-0.723824	0.219379
11055		9.689233	0.168962	2.270596	0.010032	-0.001919	-0.012471	1.000000	0.000125	-0.000024	-0.000156	0.162470	0.148815	0.975427	-0.738932	0.673473	0.020331	-0.653898	-0.724078	0.219383
11056		9.731327	0.146436	2.238994	0.009121	-0.004755	-0.004794	1.000000	0.000114	-0.000059	-0.000060	0.162544	0.148755	0.975424	-0.739187	0.673187	0.020515	-0.653591	-0.724356	0.219381
11057		9.750054	0.186238	2.194979	0.017679	-0.003453	-0.004823	1.000000	0.000221	-0.000043	-0.000060	0.162611	0.148697	0.975421	-0.739566	0.672765	0.020733	-0.653146	-0.724760	0.219370
11058		9.749827	0.192392	2.239412	0.020701	-0.005502	-0.002963	1.000000	0.000259	-0.000069	-0.000037	0.162564	0.148682	0.975432	-0.740029	0.672251	0.020863	-0.652633	-0.725239	0.219312
11059		9.728988	0.191674	2.247729	0.011672	-0.011828	-0.007111	1.000000	0.000146	-0.000148	-0.000089	0.162580	0.148463	0.975462	-0.740345	0.671895	0.021132	-0.652271	-0.725614	0.219151
11060		9.727168	0.219318	2.320545	0.016611	-0.005295	-0.000978	1.000000	0.000208	-0.000066	-0.000012	0.162418	0.148500	0.975484	-0.740727	0.671475	0.021110	-0.651877	-0.725996	0.219058
11061		9.723368	0.192645	2.267127	-0.020793	-0.006921	-0.001006	1.000000	-0.000260	-0.000087	-0.000013	0.162370	0.148456	0.975498	-0.740508	0.671719	0.021031	-0.652138	-0.725779	0.219000
11062		9.744316	0.084321	2.242755	-0.015606	-0.001268	0.000947	1.000000	-0.000195	-0.000016	0.000012	0.162323	0.148564	0.975490	-0.740369	0.671877	0.020873	-0.652308	-0.725610	0.219053
11063		9.781750	0.101495	2.240587	0.012798	-0.005777	0.006304	1.000000	0.000160	-0.000072	0.000079	0.162078	0.148680	0.975513	-0.740710	0.671505	0.020721	-0.651981	-0.725930	0.218965
11064		9.743267	0.165993	2.260353	0.015562	-0.002775	0.006714	1.000000	0.000195	-0.000035	0.000084	0.161844	0.148881	0.975521	-0.741111	0.671068	0.020539	-0.651583	-0.726294	0.218946
11065		9.716295	0.192138	2.303449	0.003766	0.001732	0.005804	1.000000	0.000047	0.000022	0.000073	0.161754	0.149143	0.975496	-0.741323	0.670840	0.020360	-0.651365	-0.726450	0.219074
11066		9.738245	0.172507	2.234952	-0.008393	0.003604	-0.000634	1.000000	-0.000105	0.000045	-0.000008	0.161790	0.149332	0.975461	-0.741306	0.670861	0.020252	-0.651375	-0.726392	0.219239
11067		9.770763	0.154028	2.260330	-0.005022	-0.000180	0.002908	1.000000	-0.000063	-0.000002	0.000036	0.161713	0.149499	0.975448	-0.741360	0.670806	0.020096	-0.651333	-0.726408	0.219311
11068		9.744473	0.079746	2.242237	-0.002243	0.003980	-0.001079	1.000000	-0.000028	0.000050	-0.000013	0.161879	0.149636	0.975400	-0.741440	0.670716	0.020156	-0.651200	-0.726463	0.219521
11069		9.716367	0.154495	2.280525	0.014608	0.008954	0.010144	1.000000	0.000183	0.000112	0.000127	0.161876	0.150017	0.975342	-0.741811	0.670310	0.020017	-0.650779	-0.726759	0.219791
11070		9.700290	0.198890	2.263730	-0.002244	0.009840	0.009874	1.000000	-0.000028	0.000123	0.000123	0.161762	0.150520	0.975283	-0.741939	0.670180	0.019627	-0.650661	-0.726775	0.220086
11071		9.757328	0.217425	2.225039	-0.017951	0.009435	0.004956	1.000000	-0.000224	0.000118	0.000062	0.161916	0.150868	0.975204	-0.741801	0.670338	0.019460	-0.650780	-0.726558	0.220452
11072		9.723619	0.176425	2.256936	0.001794	0.001820	0.001778	1.000000	0.000022	0.000023	0.000022	0.161849	0.150975	0.975198	-0.741887	0.670245	0.019364	-0.650699	-0.726621	0.220485
11073		9.743299	0.156414	2.328065	-0.024399	-0.001080	-0.004774	1.000000	-0.000305	-0.000014	-0.000060	0.161808	0.151024	0.975197	-0.741584	0.670585	0.019196	-0.651054	-0.726297	0.220503
11074		9.747290	-0.023157	2.153335	-0.010851	0.011353	-0.000800	1.000000	-0.000136	0.000142	-0.000010	0.161988	0.151365	0.975115	-0.741537	0.670640	0.019084	-0.651062	-0.726175	0.220878
11075		9.684420	0.158314	2.233061	0.055888	0.011460	0.006415	1.000000	0.000699	0.000143	0.000080	0.161942	0.151821	0.975051	-0.742580	0.669485	0.019089	-0.649885	-0.727145	0.221157
11076		9.656928	0.265101	2.281277	-0.009176	0.004327	0.001292	1.000000	-0.000115	0.000054	0.000016	0.161938	0.152053	0.975016	-0.742557	0.669516	0.018919	-0.649912	-0.727068	0.221328
11077		9.748158	0.136227	2.223274	-0.018089	-0.002257	-0.006920	1.000000	-0.000226	-0.000028	-0.000087	0.161956	0.152028	0.975017	-0.742350	0.669746	0.018880	-0.650143	-0.726862	0.221328
11078		9.784276	0.143180	2.225420	0.010789	0.003015	-0.012921	1.000000	0.000135	0.000038	-0.000162	0.162273	0.151923	0.974980	-0.742564	0.669498	0.019268	-0.649820	-0.727112	0.221454
11079		9.765465	0.174882	2.304522	0.011405	0.000038	-0.011472	1.000000	0.000143	0.000000	-0.000143	0.162515	0.151778	0.974963	-0.742784	0.669243	0.019629	-0.649508	-0.727377	0.221500
11080		9.721203	0.154028	2.254087	-0.016414	0.001338	-0.009423	1.000000	-0.000205	0.000017	-0.000118	0.162736	0.151762	0.974928	-0.742608	0.669435	0.019750	-0.649653	-0.727204	0.221641
11081		9.673642	0.156570	2.249348	-0.007450	-0.000184	0.004073	1.000000	-0.000093	-0.000002	0.000051	0.162595	0.151961	0.974921	-0.742622	0.669427	0.019509	-0.649674	-0.727169	0.221695
11082		9.716348	0.175374	2.195812	0.007393	0.000312	-0.002041	1.000000	0.000092	0.000004	-0.000026	0.162568	0.152036	0.974914	-0.742824	0.669203	0.019506	-0.649449	-0.727360	0.221727
11083		9.737713	0.259080	2.187813	0.023127	-0.005498	-0.004124	1.000000	0.000289	-0.000069	-0.000052	0.162509	0.151968	0.974934	-0.743276	0.668696	0.019661	-0.648947	-0.727840	0.221623
11084		9.739304	0.296436	2.270246	0.000823	-0.011674	-0.008837	1.000000	0.000010	-0.000146	-0.000110	0.162520	0.151675	0.974978	-0.743350	0.668606	0.019897	-0.648859	-0.727984	0.221409
11085		9.739265	0.174590	2.287275	-0.020653	-0.010755	-0.009373	1.000000	-0.000258	-0.000134	-0.000117	0.162526	0.151411	0.975018	-0.743085	0.668899	0.019992	-0.649161	-0.727770	0.221225
11086		9.738413	0.113676	2.265873	-0.020129	-0.005857	-0.007228	1.000000	-0.000252	-0.000073	-0.000090	0.162542	0.151249	0.975041	-0.742812	0.669201	0.020021	-0.649470	-0.727526	0.221122
11087		9.733760	0.122254	2.238789	-0.001902	-0.004211	-0.000430	1.000000	-0.000024	-0.000053	-0.000005	0.162496	0.151239	0.975050	-0.742877	0.669128	0.020016	-0.649406	-0.727595	0.221082
11088		9.705948	0.149544	2.251566	-0.003524	-0.005856	-0.002775	1.000000	-0.000044	-0.000073	-0.000035	0.162471	0.151141	0.975069	-0.742901	0.669100	0.020071	-0.649385	-0.727641	0.220992
11089		9.721229	0.179420	2.197376	0.003602	-0.006944	-0.007301	1.000000	0.000045	-0.000087	-0.000091	0.162486	0.150990	0.975090	-0.743036	0.668946	0.020233	-0.649228	-0.727814	0.220886
11090		9.729522	0.200352	2.244656	0.008119	-0.003477	-0.010191	1.000000	0.000101	-0.000043	-0.000127	0.162597	0.150864	0.975091	-0.743228	0.668725	0.020470	-0.648980	-0.728043	0.220859
11091		9.726181	0.194106	2.233997	0.000974	-0.004671	-0.012327	1.000000	0.000012	-0.000058	-0.000154	0.162701	0.150669	0.975104	-0.743287	0.668652	0.020704	-0.648885	-0.728151	0.220780
11092		9.752651	0.191229	2.248150	-0.009722	-0.005506	-0.010224	1.000000	-0.000122	-0.000069	-0.000128	0.162827	0.150509	0.975107	-0.743208	0.668734	0.020884	-0.648944	-0.728108	0.220748
11093		9.736812	0.129732	2.214812	-0.004029	-0.005779	-0.011002	1.000000	-0.000050	-0.000072	-0.000138	0.162919	0.150358	0.975115	-0.743222	0.668714	0.021063	-0.648906	-0.728158	0.220695
11094		9.729753	0.179618	2.230346	0.021016	-0.002115	-0.005341	1.000000	0.000263	-0.000026	-0.000067	0.163012	0.150329	0.975104	-0.743649	0.668231	0.021300	-0.648393	-0.728608	0.220722
11095		9.701496	0.273267	2.279694	-0.011744	-0.001528	0.001558	1.000000	-0.000147	-0.000019	0.000019	0.162948	0.150441	0.975098	-0.743568	0.668326	0.021146	-0.648502	-0.728497	0.220766
11096		9.757462	0.248463	2.231628	-0.037936	-0.003901	0.000546	1.000000	-0.000474	-0.000049	0.000007	0.162819	0.150448	0.975118	-0.743038	0.668924	0.020862	-0.649141	-0.727947	0.220702
11097		9.762263	0.155683	2.178418	-0.011265	-0.004439	-0.002410	1.000000	-0.000141	-0.000055	-0.000030	0.162785	0.150415	0.975129	-0.742940	0.669034	0.020825	-0.649262	-0.727852	0.220658
11098		9.766480	0.173641	2.306501	0.000220	-0.012856	-0.004672	1.000000	0.000003	-0.000161	-0.000058	0.162692	0.150176	0.975181	-0.743030	0.668930	0.020947	-0.649182	-0.727997	0.220415
11099		9.777978	0.096220	2.196126	-0.015971	-0.007161	0.002631	1.000000	-0.000200	-0.000090	0.000033	0.162517	0.150193	0.975208	-0.742886	0.669096	0.020752	-0.649391	-0.727841	0.220315
11100		9.690726	0.149431	2.214889	0.038290	0.001550	0.011053	1.000000	0.000479	0.000019	0.000138	0.162314	0.150482	0.975197	-0.743643	0.668258	0.020655	-0.648575	-0.728551	0.220372
11101		9.694221	0.222950	2.259805	-0.013845	-0.006151	0.007677	1.000000	-0.000173	-0.000077	0.000096	0.162035	0.150600	0.975225	-0.743541	0.668381	0.020325	-0.648761	-0.728414	0.220278
11102		9.748339	0.119146	2.149263	0.003162	-0.002670	0.001740	1.000000	0.000040	-0.000033	0.000022	0.161993	0.150620	0.975229	-0.743682	0.668224	0.020327	-0.648610	-0.728553	0.220262
11103		9.784092	0.194899	2.232042	0.032410	-0.002110	-0.001382	1.000000	0.000405	-0.000026	-0.000017	0.162005	0.150641	0.975224	-0.744305	0.667524	0.020534	-0.647892	-0.729191	0.220265
11104		9.762951	0.180994	2.274510	0.019235	-0.002218	-0.005997	1.000000	0.000240	-0.000028	-0.000075	0.162062	0.150552	0.975228	-0.744680	0.667099	0.020766	-0.647447	-0.729598	0.220224
11105		9.685987	0.164201	2.231753	-0.003728	0.002872	-0.007936	1.000000	-0.000047	0.000036	-0.000099	0.162325	0.150561	0.975183	-0.744710	0.667058	0.020973	-0.647346	-0.729633	0.220405
11106		9.758528	0.157335	2.223400	0.017209	0.003854	0.002969	1.000000	0.000215	0.000048	0.000037	0.162328	0.150765	0.975151	-0.745098	0.666625	0.020967	-0.646899	-0.729987	0.220546
11107		9.782281	0.217884	2.216821	0.014191	0.003815	0.003926	1.000000	0.000177	0.000048	0.000049	0.162210	0.151023	0.975131	-0.745436	0.666252	0.020816	-0.646539	-0.730274	0.220651
11108		9.754938	0.257719	2.228769	0.017015	0.007252	0.007831	1.000000	0.000213	0.000091	0.000098	0.162185	0.151405	0.975076	-0.745860	0.665782	0.020680	-0.646057	-0.730624	0.220907
11109		9.740021	0.224661	2.237873	-0.002645	0.009647	-0.002416	1.000000	-0.000033	0.000121	-0.000030	0.162402	0.151608	0.975008	-0.745901	0.665734	0.020723	-0.645954	-0.730625	0.221201
11110		9.732496	0.193078	2.253372	0.008845	0.008247	0.001888	1.000000	0.000111	0.000103	0.000024	0.162490	0.151888	0.974950	-0.746149	0.665458	0.020684	-0.645646	-0.730819	0.221461
11111		9.737720	0.215291	2.290549	-0.000122	0.004991	0.003960	1.000000	-0.000002	0.000062	0.000050	0.162525	0.152122	0.974907	-0.746258	0.665339	0.020590	-0.645512	-0.730878	0.221656
11112		9.715446	0.193778	2.260451	-0.002711	0.008618	0.004013	1.000000	-0.000034	0.000108	0.000050	0.162550	0.152460	0.974851	-0.746334	0.665259	0.020404	-0.645417	-0.730881	0.221924
11113		9.732306	0.203645	2.255588	-0.006420	0.009964	0.004419	1.000000	-0.000080	0.000125	0.000055	0.162637	0.152780	0.974786	-0.746339	0.665258	0.020255	-0.645389	-0.730815	0.222221
11114		9.727575	0.176316	2.206395	-0.003014	0.012309	-0.002519	1.000000	-0.000038	0.000154	-0.000031	0.162897	0.153058	0.974699	-0.746387	0.665203	0.020283	-0.645268	-0.730807	0.222600
11115		9.724954	0.198269	2.238968	-0.000037	0.014200	-0.000311	1.000000	-0.000000	0.000177	-0.000004	0.163098	0.153385	0.974614	-0.746468	0.665114	0.020243	-0.645124	-0.730819	0.222976
11116		9.745881	0.170378	2.251314	-0.002899	0.012615	-0.001055	1.000000	-0.000036	0.000158	-0.000013	0.163324	0.153636	0.974536	-0.746495	0.665082	0.020256	-0.645035	-0.730795	0.223313
11117		9.771960	0.196347	2.279640	0.010870	0.013926	-0.000611	1.000000	0.000136	0.000174	-0.000008	0.163548	0.153967	0.974447	-0.746765	0.664778	0.020297	-0.644666	-0.731002	0.223700
11118		9.721193	0.190657	2.297368	-0.006661	0.010880	-0.006864	1.000000	-0.000083	0.000136	-0.000086	0.163921	0.154112	0.974361	-0.746719	0.664824	0.020470	-0.644624	-0.730930	0.224057
11119		9.687620	0.161143	2.253032	-0.005933	0.016750	-0.005738	1.000000	-0.000074	0.000209	-0.000072	0.164281	0.154412	0.974253	-0.746690	0.664855	0.020534	-0.644566	-0.730838	0.224521
11120		9.677093	0.226632	2.227690	0.008133	0.014370	0.001245	1.000000	0.000102	0.000180	0.000016	0.164371	0.154821	0.974173	-0.746911	0.664611	0.020402	-0.644287	-0.730974	0.224880
11121		9.725620	0.268460	2.241749	-0.008696	0.007852	-0.001650	1.000000	-0.000109	0.000098	-0.000021	0.164597	0.154980	0.974109	-0.746856	0.664671	0.020449	-0.644293	-0.730885	0.225150
11122		9.719215	0.250351	2.253364	-0.004657	0.005134	-0.004316	1.000000	-0.000058	0.000064	-0.000054	0.164800	0.155058	0.974063	-0.746860	0.664664	0.020554	-0.644237	-0.730876	0.225343
11123		9.701092	0.231574	2.338870	-0.007684	-0.003647	-0.011053	1.000000	-0.000096	-0.000046	-0.000138	0.164904	0.154867	0.974075	-0.746771	0.664758	0.020734	-0.644313	-0.730831	0.225271
11124		9.761288	0.086811	2.229279	-0.040674	0.000142	-0.008821	1.000000	-0.000508	0.000002	-0.000110	0.165093	0.154799	0.974054	-0.746172	0.665431	0.020718	-0.644958	-0.730232	0.225365
11125		9.698122	0.057789	2.203028	0.040648	0.008212	-0.002442	1.000000	0.000508	0.000103	-0.000031	0.165218	0.154999	0.974001	-0.746905	0.664602	0.020934	-0.644078	-0.730945	0.225574
11126		9.670481	0.249641	2.328277	0.016603	-0.000542	-0.001058	1.000000	0.000208	-0.000007	-0.000013	0.165177	0.155091	0.973993	-0.747270	0.664190	0.020967	-0.643665	-0.731299	0.225604
11127		9.726976	0.161779	2.244462	-0.006800	-0.005223	-0.007121	1.000000	-0.000085	-0.000065	-0.000089	0.165256	0.154951	0.974002	-0.747228	0.664232	0.021109	-0.643693	-0.731290	0.225552
11128		9.774835	0.210650	2.270833	0.030222	-0.005253	-0.010993	1.000000	0.000378	-0.000066	-0.000137	0.165404	0.154727	0.974013	-0.747768	0.663610	0.021566	-0.643028	-0.731903	0.225463
11129		9.755326	0.291492	2.341495	0.025004	-0.005251	-0.011474	1.000000	0.000313	-0.000066	-0.000143	0.165562	0.154491	0.974024	-0.748218	0.663088	0.022007	-0.642464	-0.732425	0.225375
11130		9.721418	0.254409	2.340968	-0.017425	-0.008857	-0.009767	1.000000	-0.000218	-0.000111	-0.000122	0.165498	0.154283	0.974067	-0.747987	0.663348	0.022018	-0.642749	-0.732234	0.225184
11131		9.690045	0.189377	2.265727	-0.006459	-0.004314	-0.002720	1.000000	-0.000081	-0.000054	-0.000034	0.165471	0.154241	0.974079	-0.747967	0.663370	0.022019	-0.642779	-0.732222	0.225136
11132		9.724164	0.246745	2.275972	0.000014	-0.008543	0.001793	1.000000	0.000000	-0.000107	0.000022	0.165267	0.154229	0.974115	-0.748070	0.663258	0.021905	-0.642711	-0.732327	0.224989
11133		9.740424	0.226557	2.228175	0.002180	-0.005570	0.001987	1.000000	0.000027	-0.000070	0.000025	0.165099	0.154252	0.974140	-0.748204	0.663111	0.021806	-0.642599	-0.732455	0.224891
11134		9.720448	0.272416	2.289340	0.003092	-0.004821	-0.002880	1.000000	0.000039	-0.000060	-0.000036	0.165069	0.154204	0.974153	-0.748339	0.662956	0.021861	-0.642450	-0.732605	0.224830
11135		9.721594	0.224610	2.294845	-0.005276	-0.004245	-0.002287	1.000000	-0.000066	-0.000053	-0.000029	0.165000	0.154188	0.974167	-0.748337	0.662960	0.021819	-0.642469	-0.732605	0.224773
11136		9.751963	0.210875	2.306089	-0.007859	-0.002706	0.000580	1.000000	-0.000098	-0.000034	0.000007	0.164921	0.154241	0.974172	-0.748310	0.662993	0.021712	-0.642520	-0.732564	0.224762
11137		9.730294	0.176373	2.306210	-0.011755	-0.003261	0.000418	1.000000	-0.000147	-0.000041	0.000005	0.164845	0.154265	0.974181	-0.748215	0.663105	0.021604	-0.642651	-0.732458	0.224733
11138		9.705675	0.176993	2.273977	-0.000206	-0.000972	0.001017	1.000000	-0.000003	-0.000012	0.000013	0.164760	0.154334	0.974184	-0.748311	0.662998	0.021524	-0.642561	-0.732540	0.224726
11139		9.733454	0.215637	2.295841	-0.001342	0.001478	0.001267	1.000000	-0.000017	0.000018	0.000016	0.164742	0.154466	0.974166	-0.748391	0.662911	0.021448	-0.642473	-0.732591	0.224811
11140		9.734425	0.228978	2.292716	0.005386	0.000178	-0.000091	1.000000	0.000067	0.000002	-0.000001	0.164797	0.154533	0.974147	-0.748573	0.662703	0.021509	-0.642246	-0.732765	0.224891
11141		9.743843	0.256899	2.292489	-0.004417	0.001004	-0.001278	1.000000	-0.000055	0.000013	-0.000016	0.164833	0.154617	0.974127	-0.748593	0.662681	0.021487	-0.642213	-0.732767	0.224977
11142		9.741771	0.230072	2.299308	-0.009668	0.000205	-0.001304	1.000000	-0.000121	0.000003	-0.000016	0.164791	0.154714	0.974119	-0.748518	0.662770	0.021362	-0.642312	-0.732666	0.225025
11143		9.732250	0.201546	2.300018	-0.020735	0.002017	0.000691	1.000000	-0.000259	0.000025	0.000009	0.164776	0.154850	0.974100	-0.748278	0.663047	0.021174	-0.642595	-0.732386	0.225125
11144		9.716799	0.167684	2.278085	-0.006457	0.000058	0.001124	1.000000	-0.000081	0.000001	0.000014	0.164733	0.154965	0.974089	-0.748272	0.663058	0.021060	-0.642614	-0.732352	0.225184
11145		9.685134	0.197975	2.250054	-0.005852	0.001814	0.002472	1.000000	-0.000073	0.000023	0.000031	0.164795	0.155118	0.974054	-0.748278	0.663053	0.021006	-0.642591	-0.732325	0.225339
11146		9.724213	0.228726	2.275215	-0.001399	0.001606	0.003299	1.000000	-0.000017	0.000020	0.000041	0.164778	0.155259	0.974034	-0.748362	0.662960	0.020927	-0.642497	-0.732379	0.225431
11147		9.789522	0.218958	2.260299	-0.010375	0.000429	0.002544	1.000000	-0.000130	0.000005	0.000032	0.164782	0.155376	0.974015	-0.748302	0.663031	0.020829	-0.642566	-0.732289	0.225524
11148		9.754472	0.187424	2.351783	0.018350	-0.007688	-0.001002	1.000000	0.000229	-0.000096	-0.000013	0.164674	0.155305	0.974045	-0.748682	0.662599	0.020926	-0.642151	-0.732696	0.225387
11149		9.728572	0.192880	2.335003	-0.019513	-0.003570	-0.000358	1.000000	-0.000244	-0.000045	-0.000004	0.164691	0.155290	0.974044	-0.748458	0.662853	0.020872	-0.642407	-0.732469	0.225394
11150		9.700668	0.096200	2.170141	0.005963	0.005502	0.005555	1.000000	0.000075	0.000069	0.000069	0.164664	0.155604	0.973998	-0.748666	0.662624	0.020710	-0.642172	-0.732610	0.225606
11151		9.666656	0.262882	2.230555	0.038073	0.001781	0.007716	1.000000	0.000476	0.000022	0.000096	0.164536	0.155835	0.973983	-0.749399	0.661795	0.020711	-0.641350	-0.733310	0.225672
11152		9.672624	0.220062	2.229840	0.006017	-0.005449	-0.001353	1.000000	0.000075	-0.000068	-0.000017	0.164435	0.155816	0.974003	-0.749576	0.661594	0.020708	-0.641168	-0.733495	0.225586
11153		9.750573	0.192516	2.277980	0.021411	-0.005688	-0.006804	1.000000	0.000268	-0.000071	-0.000085	0.164405	0.155718	0.974024	-0.749967	0.661145	0.020889	-0.640719	-0.733920	0.225479
11154		9.771482	0.215709	2.279937	0.029902	0.002221	-0.003778	1.000000	0.000374	0.000028	-0.000047	0.164501	0.155765	0.974000	-0.750516	0.660515	0.021125	-0.640051	-0.734478	0.225559
11155		9.753585	0.223901	2.300226	0.010656	0.000053	-0.001648	1.000000	0.000133	0.000001	-0.000021	0.164547	0.155817	0.973984	-0.750765	0.660229	0.021213	-0.639747	-0.734724	0.225621
11156		9.705005	0.191706	2.210770	-0.002619	0.000179	-0.002212	1.000000	-0.000033	0.000002	-0.000028	0.164592	0.155857	0.973970	-0.750797	0.660191	0.021233	-0.639697	-0.734749	0.225679
11157		9.687888	0.228821	2.239909	0.019657	-0.005017	0.007558	1.000000	0.000246	-0.000063	0.000094	0.164414	0.155943	0.973987	-0.751240	0.659689	0.021192	-0.639223	-0.735182	0.225613
11158		9.732322	0.278611	2.224094	0.011950	-0.003380	0.001936	1.000000	0.000149	-0.000042	0.000024	0.164271	0.156006	0.974000	-0.751524	0.659367	0.021138	-0.638926	-0.735457	0.225558
11159		9.770273	0.314744	2.263923	0.019631	-0.004654	0.003608	1.000000	0.000245	-0.000058	0.000045	0.164146	0.156053	0.974014	-0.751931	0.658902	0.021153	-0.638479	-0.735864	0.225498
11160		9.734513	0.296479	2.292760	-0.000615	-0.009370	0.002037	1.000000	-0.000008	-0.000117	0.000025	0.163928	0.155996	0.974060	-0.752015	0.658809	0.021050	-0.638436	-0.735959	0.225309
11161		9.720440	0.214189	2.275422	-0.019646	-0.006763	0.001467	1.000000	-0.000246	-0.000085	0.000018	0.163833	0.155952	0.974083	-0.751786	0.659075	0.020926	-0.638730	-0.735731	0.225220
11162		9.712468	0.211342	2.238046	-0.018147	-0.009222	0.004033	1.000000	-0.000227	-0.000115	0.000050	0.163566	0.155939	0.974130	-0.751595	0.659302	0.020659	-0.639024	-0.735530	0.225042
11163		9.746128	0.187938	2.215153	-0.002905	-0.009998	0.003087	1.000000	-0.000036	-0.000125	0.000039	0.163324	0.155897	0.974177	-0.751632	0.659264	0.020512	-0.639042	-0.735573	0.224851
11164		9.734405	0.216386	2.268603	0.000010	-0.008539	0.001796	1.000000	0.000000	-0.000107	0.000022	0.163147	0.155856	0.974214	-0.751715	0.659172	0.020431	-0.638990	-0.735664	0.224701
11165		9.734184	0.199008	2.224732	0.004442	-0.004579	-0.003018	1.000000	0.000056	-0.000057	-0.000038	0.163096	0.155807	0.974230	-0.751853	0.659013	0.020473	-0.638840	-0.735817	0.224626
11166		9.739020	0.271051	2.252792	0.002123	-0.002197	-0.003200	1.000000	0.000027	-0.000027	-0.000040	0.163151	0.155778	0.974225	-0.751955	0.658894	0.020571	-0.638706	-0.735930	0.224637
11167		9.757427	0.234856	2.251412	-0.010249	-0.005130	-0.006931	1.000000	-0.000128	-0.000064	-0.000087	0.163166	0.155650	0.974243	-0.751849	0.659013	0.020632	-0.638828	-0.735850	0.224554
11168		9.741758	0.207759	2.273849	-0.002541	-0.003527	-0.008535	1.000000	-0.000032	-0.000044	-0.000107	0.163269	0.155518	0.974247	-0.751851	0.659005	0.020803	-0.638798	-0.735885	0.224522
11169		9.734775	0.191205	2.254373	-0.000610	0.001484	-0.008563	1.000000	-0.000008	0.000019	-0.000107	0.163497	0.155460	0.974218	-0.751888	0.658955	0.021032	-0.638697	-0.735941	0.224626
11170		9.703416	0.193262	2.246204	-0.007452	0.002479	-0.008666	1.000000	-0.000093	0.000031	-0.000108	0.163698	0.155434	0.974189	-0.751809	0.659040	0.021179	-0.638738	-0.735871	0.224740
11171		9.731075	0.247148	2.235707	0.006884	0.000961	-0.004749	1.000000	0.000086	0.000012	-0.000059	0.163848	0.155424	0.974165	-0.751970	0.658851	0.021359	-0.638510	-0.736043	0.224825
11172		9.756388	0.291284	2.244375	-0.020173	-0.001967	-0.006864	1.000000	-0.000252	-0.000025	-0.000086	0.163955	0.155329	0.974162	-0.751706	0.659151	0.021413	-0.638794	-0.735794	0.224833
11173		9.747030	0.203829	2.253913	0.004716	-0.005220	-0.013183	1.000000	0.000059	-0.000065	-0.000165	0.164113	0.155087	0.974174	-0.751802	0.659030	0.021735	-0.638640	-0.735953	0.224750
11174		9.751395	0.220891	2.337018	0.003497	-0.006085	-0.013162	1.000000	0.000044	-0.000076	-0.000165	0.164241	0.154824	0.974194	-0.751890	0.658920	0.022043	-0.638504	-0.736107	0.224632
11175		9.740765	0.172800	2.220145	-0.010872	0.004860	-0.001829	1.000000	-0.000136	0.000061	-0.000023	0.164354	0.154961	0.974153	-0.751780	0.659047	0.022000	-0.638604	-0.735965	0.224813
11176		9.697021	0.228562	2.202749	0.004943	0.001249	0.000703	1.000000	0.000062	0.000016	0.000009	0.164265	0.155101	0.974146	-0.751942	0.658865	0.021893	-0.638435	-0.736098	0.224855
11177		9.683125	0.240805	2.186880	-0.008757	-0.001702	-0.008874	1.000000	-0.000109	-0.000021	-0.000111	0.164450	0.154984	0.974134	-0.751830	0.658988	0.022077	-0.638520	-0.736013	0.224892
11178		9.707517	0.211380	2.208190	0.008304	-0.004211	-0.012344	1.000000	0.000104	-0.000053	-0.000154	0.164651	0.154762	0.974135	-0.751968	0.658818	0.022432	-0.638306	-0.736212	0.224851
11179		9.782564	0.207408	2.256491	0.014670	-0.004928	-0.010993	1.000000	0.000183	-0.000062	-0.000137	0.164793	0.154545	0.974145	-0.752244	0.658490	0.022788	-0.637944	-0.736550	0.224770
11180		9.797180	0.229884	2.280769	0.004893	-0.004477	-0.008220	1.000000	0.000061	-0.000056	-0.000103	0.164827	0.154403	0.974162	-0.752377	0.658333	0.022957	-0.637778	-0.736721	0.224681
11181		9.720515	0.212459	2.237114	-0.001969	-0.002565	-0.006739	1.000000	-0.000025	-0.000032	-0.000084	0.165017	0.154276	0.974150	-0.752383	0.658318	0.023193	-0.637722	-0.736761	0.224708
11182		9.676541	0.224942	2.241431	0.002526	-0.001406	-0.000838	1.000000	0.000032	-0.000018	-0.000010	0.165034	0.154285	0.974146	-0.752508	0.658173	0.023244	-0.637570	-0.736888	0.224722
11183		9.734062	0.260034	2.166353	0.004924	-0.008645	-0.002583	1.000000	0.000062	-0.000108	-0.000032	0.164936	0.154157	0.974183	-0.752650	0.658008	0.023304	-0.637428	-0.737062	0.224556
11184		9.752431	0.290584	2.199063	0.021540	-0.010076	-0.005261	1.000000	0.000269	-0.000126	-0.000066	0.164856	0.153955	0.974228	-0.753047	0.657546	0.023518	-0.636979	-0.737517	0.224335
11185		9.756227	0.307054	2.250846	0.009868	-0.017056	-0.011147	1.000000	0.000123	-0.000213	-0.000139	0.164769	0.153527	0.974310	-0.753251	0.657303	0.023810	-0.636761	-0.737823	0.223947
11186		9.747194	0.299128	2.260437	-0.011812	-0.014537	-0.007918	1.000000	-0.000148	-0.000182	-0.000099	0.164640	0.153210	0.974382	-0.753102	0.657470	0.023871	-0.636970	-0.737740	0.223628
11187		9.736090	0.227421	2.221787	-0.015727	-0.015331	-0.002089	1.000000	-0.000197	-0.000192	-0.000026	0.164506	0.152934	0.974448	-0.752908	0.657692	0.023885	-0.637234	-0.737599	0.223340
11188		9.746218	0.254668	2.218058	-0.007216	-0.012143	0.001026	1.000000	-0.000090	-0.000152	0.000013	0.164282	0.152795	0.974507	-0.752866	0.657744	0.023789	-0.637341	-0.737582	0.223090
11189		9.732921	0.265886	2.199417	-0.006488	-0.011568	-0.003277	1.000000	-0.000081	-0.000145	-0.000041	0.164213	0.152578	0.974553	-0.752794	0.657823	0.023856	-0.637444	-0.737556	0.222883
11190		9.724547	0.269801	2.207222	-0.008695	-0.007727	-0.006390	1.000000	-0.000109	-0.000097	-0.000080	0.164266	0.152363	0.974578	-0.752707	0.657917	0.024013	-0.637533	-0.737516	0.222758
11191		9.732397	0.271739	2.211589	-0.008441	-0.008043	-0.005041	1.000000	-0.000106	-0.000101	-0.000063	0.164223	0.152201	0.974610	-0.752619	0.658017	0.024057	-0.637648	-0.737461	0.222611
11192		9.751196	0.283713	2.231844	-0.013794	-0.007434	-0.005388	1.000000	-0.000172	-0.000093	-0.000067	0.164233	0.152023	0.974637	-0.752446	0.658212	0.024125	-0.637850	-0.737324	0.222489
11193		9.763426	0.259792	2.220034	-0.013712	-0.006764	-0.007872	1.000000	-0.000171	-0.000085	-0.000098	0.164250	0.151838	0.974663	-0.752275	0.658405	0.024204	-0.638047	-0.737189	0.222367
11194		9.731180	0.251455	2.259407	-0.011753	-0.002118	-0.003951	1.000000	-0.000147	-0.000026	-0.000049	0.164287	0.151798	0.974663	-0.752135	0.658564	0.024211	-0.638203	-0.737056	0.222366
11195		9.742411	0.257334	2.229628	-0.012960	0.001379	-0.000082	1.000000	-0.000162	0.000017	-0.000001	0.164369	0.151860	0.974639	-0.751985	0.658737	0.024181	-0.638359	-0.736888	0.222472
11196		9.734747	0.317113	2.213771	-0.009044	-0.000145	0.002886	1.000000	-0.000113	-0.000002	0.000036	0.164401	0.151927	0.974623	-0.751906	0.658829	0.024133	-0.638443	-0.736792	0.222547
11197		9.779788	0.317754	2.205553	-0.026594	-0.000586	-0.000611	1.000000	-0.000332	-0.000007	-0.000008	0.164351	0.151985	0.974623	-0.751561	0.659229	0.023935	-0.638862	-0.736422	0.222571
11198		9.754737	0.260276	2.229672	-0.017249	0.001759	-0.001465	1.000000	-0.000216	0.000022	-0.000018	0.164401	0.152058	0.974603	-0.751346	0.659478	0.023849	-0.639103	-0.736184	0.222666
11199		9.718970	0.228131	2.293060	-0.009265	-0.001670	-0.001631	1.000000	-0.000116	-0.000021	-0.000020	0.164447	0.152041	0.974598	-0.751254	0.659582	0.023864	-0.639199	-0.736095	0.222687
11200		9.750812	0.213832	2.165901	-0.029831	0.010128	0.007836	1.000000	-0.000373	0.000127	0.000098	0.164422	0.152444	0.974539	-0.750865	0.660040	0.023436	-0.639662	-0.735601	0.222989
11201		9.717009	0.246061	2.156741	-0.001317	0.010189	0.008978	1.000000	-0.000016	0.000127	0.000112	0.164437	0.152834	0.974475	-0.750946	0.659955	0.023212	-0.639563	-0.735595	0.223291
11202		9.713738	0.252593	2.191579	-0.010633	0.007177	0.002260	1.000000	-0.000133	0.000090	0.000028	0.164485	0.153079	0.974429	-0.750844	0.660077	0.023048	-0.639670	-0.735435	0.223511
11203		9.720327	0.222730	2.189708	-0.003126	0.006349	-0.005449	1.000000	-0.000039	0.000079	-0.000068	0.164696	0.153157	0.974381	-0.750851	0.660065	0.023162	-0.639608	-0.735430	0.223708
11204		9.811719	0.244646	2.246585	0.009731	0.007849	0.001424	1.000000	0.000122	0.000098	0.000018	0.164772	0.153397	0.974330	-0.751061	0.659827	0.023132	-0.639341	-0.735593	0.223931
11205		9.774185	0.273990	2.272809	0.001850	0.008696	0.006317	1.000000	0.000023	0.000109	0.000079	0.164764	0.153735	0.974279	-0.751185	0.659694	0.022940	-0.639199	-0.735643	0.224176
11206		9.705238	0.267967	2.235222	-0.017990	0.008805	-0.000536	1.000000	-0.000225	0.000110	-0.000007	0.164945	0.153936	0.974216	-0.750943	0.659971	0.022861	-0.639435	-0.735352	0.224456
11207		9.668048	0.244224	2.192978	-0.013229	0.006989	0.003997	1.000000	-0.000165	0.000087	0.000050	0.164997	0.154182	0.974168	-0.750804	0.660135	0.022686	-0.639585	-0.735153	0.224681
11208		9.710860	0.279632	2.182577	0.005063	0.000378	0.006567	1.000000	0.000063	0.000005	0.000082	0.164870	0.154356	0.974162	-0.750972	0.659950	0.022528	-0.639421	-0.735282	0.224723
11209		9.751937	0.337077	2.200819	0.006926	0.001154	0.004730	1.000000	0.000087	0.000014	0.000059	0.164705	0.154548	0.974160	-0.751202	0.659694	0.022350	-0.639193	-0.735472	0.224752
11210		9.762124	0.320524	2.252170	-0.002094	-0.004017	-0.003814	1.000000	-0.000026	-0.000050	-0.000048	0.164686	0.154482	0.974173	-0.751200	0.659695	0.022379	-0.639200	-0.735485	0.224689
11211		9.727602	0.249798	2.243261	-0.013252	0.000914	-0.000993	1.000000	-0.000166	0.000011	-0.000012	0.164772	0.154506	0.974155	-0.751050	0.659866	0.022377	-0.639354	-0.735326	0.224770
11212		9.749256	0.186085	2.197081	-0.013780	0.001305	0.002292	1.000000	-0.000172	0.000016	0.000029	0.164797	0.154599	0.974136	-0.750906	0.660033	0.022283	-0.639517	-0.735157	0.224860
11213		9.736326	0.257923	2.200972	0.007251	-0.001383	0.006859	1.000000	0.000091	-0.000017	0.000086	0.164645	0.154738	0.974140	-0.751131	0.659782	0.022149	-0.639292	-0.735353	0.224859
11214		9.698495	0.273936	2.227593	-0.008312	-0.006005	-0.002466	1.000000	-0.000104	-0.000075	-0.000031	0.164678	0.154608	0.974155	-0.751010	0.659917	0.022220	-0.639425	-0.735259	0.224786
11215		9.724170	0.255983	2.244624	-0.012223	-0.007108	-0.008155	1.000000	-0.000153	-0.000089	-0.000102	0.164710	0.154398	0.974183	-0.750838	0.660109	0.022328	-0.639619	-0.735131	0.224655
11216		9.746171	0.243023	2.219570	-0.007075	-0.004886	-0.008468	1.000000	-0.000088	-0.000061	-0.000106	0.164801	0.154218	0.974196	-0.750729	0.660228	0.022482	-0.639724	-0.735062	0.224582
11217		9.730046	0.246477	2.222409	-0.003705	-0.003939	-0.005027	1.000000	-0.000046	-0.000049	-0.000063	0.164853	0.154110	0.974204	-0.750690	0.660269	0.022582	-0.639756	-0.735048	0.224536
11218		9.739588	0.275207	2.221204	-0.000740	-0.003769	-0.003953	1.000000	-0.000009	-0.000047	-0.000049	0.164890	0.154013	0.974213	-0.750720	0.660231	0.022687	-0.639712	-0.735102	0.224486
11219		9.749242	0.242416	2.229756	-0.013130	-0.002888	-0.009362	1.000000	-0.000164	-0.000036	-0.000117	0.164963	0.153882	0.974222	-0.750551	0.660420	0.022773	-0.639891	-0.734959	0.224441
11220		9.713122	0.239125	2.227574	0.011812	0.000514	-0.005186	1.000000	0.000148	0.000006	-0.000065	0.165092	0.153840	0.974206	-0.750785	0.660146	0.022985	-0.639583	-0.735215	0.224485
11221		9.716969	0.280183	2.247427	0.009587	0.002939	0.002090	1.000000	0.000120	0.000037	0.000026	0.165074	0.153985	0.974186	-0.751030	0.659869	0.022959	-0.639300	-0.735433	0.224575
11222		9.725725	0.325444	2.260699	-0.003239	0.001070	-0.000838	1.000000	-0.000040	0.000013	-0.000010	0.165081	0.154053	0.974175	-0.751037	0.659862	0.022920	-0.639290	-0.735425	0.224630
11223		9.782066	0.285143	2.199598	-0.011112	-0.003362	-0.001387	1.000000	-0.000139	-0.000042	-0.000017	0.165082	0.154009	0.974181	-0.750893	0.660027	0.022900	-0.639459	-0.735286	0.224603
11224		9.719855	0.263122	2.292048	0.018465	-0.005258	-0.002402	1.000000	0.000231	-0.000066	-0.000030	0.165031	0.153927	0.974203	-0.751242	0.659625	0.023039	-0.639062	-0.735664	0.224494
11225		9.712697	0.262387	2.284540	-0.012583	-0.005081	0.001683	1.000000	-0.000157	-0.000064	0.000021	0.164876	0.153927	0.974229	-0.751127	0.659761	0.022877	-0.639237	-0.735542	0.224397
11226		9.726975	0.267652	2.143964	-0.001431	0.004898	0.013595	1.000000	-0.000018	0.000061	0.000170	0.164702	0.154289	0.974201	-0.751224	0.659662	0.022531	-0.639168	-0.735555	0.224553
11227		9.721102	0.343429	2.200188	-0.002709	-0.001664	0.004672	1.000000	-0.000034	-0.000021	0.000058	0.164606	0.154376	0.974204	-0.751255	0.659632	0.022407	-0.639157	-0.735564	0.224555
11228		9.703062	0.269609	2.186884	-0.014738	-0.005158	-0.001777	1.000000	-0.000184	-0.000064	-0.000022	0.164609	0.154278	0.974219	-0.751049	0.659867	0.022404	-0.639398	-0.735374	0.224490
11229		9.737301	0.252056	2.239593	-0.003636	-0.006153	-0.004249	1.000000	-0.000045	-0.000077	-0.000053	0.164597	0.154138	0.974243	-0.751034	0.659880	0.022485	-0.639418	-0.735391	0.224377
11230		9.774616	0.270758	2.237224	0.001851	-0.002114	0.001422	1.000000	0.000023	-0.000026	0.000018	0.164561	0.154158	0.974246	-0.751130	0.659771	0.022477	-0.639315	-0.735484	0.224365
11231		9.769398	0.282661	2.256375	-0.007131	-0.003298	0.000684	1.000000	-0.000089	-0.000041	0.000009	0.164458	0.154171	0.974261	-0.751094	0.659816	0.022375	-0.639384	-0.735441	0.224309
11232		9.698412	0.281672	2.203484	-0.012188	0.000685	-0.002023	1.000000	-0.000152	0.000009	-0.000025	0.164546	0.154181	0.974245	-0.750933	0.659999	0.022380	-0.639550	-0.735275	0.224379
11233		9.707484	0.326271	2.215604	-0.009074	-0.007388	0.002281	1.000000	-0.000113	-0.000092	0.000029	0.164380	0.154130	0.974281	-0.750864	0.660081	0.022261	-0.639673	-0.735212	0.224235
11234		9.734154	0.271747	2.206396	-0.010926	-0.005273	0.000859	1.000000	-0.000137	-0.000066	0.000011	0.164276	0.154091	0.974305	-0.750769	0.660193	0.022173	-0.639812	-0.735120	0.224141
11235		9.771391	0.303824	2.170999	0.000669	-0.007452	-0.004454	1.000000	0.000008	-0.000093	-0.000056	0.164196	0.153946	0.974341	-0.750815	0.660139	0.022226	-0.639779	-0.735199	0.223977
11236		9.739346	0.295963	2.209324	-0.012536	-0.009289	-0.010193	1.000000	-0.000157	-0.000116	-0.000127	0.164282	0.153633	0.974376	-0.750610	0.660365	0.022433	-0.639997	-0.735062	0.223805
11237		9.744378	0.209986	2.200220	-0.012860	-0.007928	-0.007923	1.000000	-0.000161	-0.000099	-0.000099	0.164322	0.153391	0.974407	-0.750417	0.660579	0.022560	-0.640213	-0.734919	0.223655
11238		9.754049	0.238233	2.198466	0.002823	-0.004739	0.001725	1.000000	0.000035	-0.000059	0.000022	0.164240	0.153365	0.974425	-0.750522	0.660460	0.022551	-0.640110	-0.735032	0.223578
11239		9.766004	0.323090	2.200577	0.002637	-0.003998	0.003878	1.000000	0.000033	-0.000050	0.000048	0.164103	0.153402	0.974442	-0.750614	0.660360	0.022451	-0.640039	-0.735114	0.223513
11240		9.748965	0.311320	2.206811	-0.009625	-0.003730	-0.001639	1.000000	-0.000120	-0.000047	-0.000020	0.164107	0.153334	0.974452	-0.750495	0.660495	0.022458	-0.640177	-0.735007	0.223468
11241		9.735819	0.291757	2.209826	-0.013884	-0.002548	-0.003469	1.000000	-0.000174	-0.000032	-0.000043	0.164104	0.153286	0.974460	-0.750306	0.660710	0.022423	-0.640399	-0.734823	0.223437
11242		9.747642	0.280316	2.166220	-0.006571	-0.004062	0.001346	1.000000	-0.000082	-0.000051	0.000017	0.163991	0.153286	0.974480	-0.750262	0.660764	0.022320	-0.640479	-0.734775	0.223364
11243		9.763971	0.281400	2.206997	-0.005384	-0.003994	0.001775	1.000000	-0.000067	-0.000050	0.000022	0.163900	0.153279	0.974496	-0.750230	0.660802	0.022243	-0.640540	-0.734742	0.223300
11244		9.751339	0.243971	2.196647	-0.007846	-0.003628	-0.000997	1.000000	-0.000098	-0.000045	-0.000012	0.163896	0.153222	0.974506	-0.750129	0.660917	0.022244	-0.640659	-0.734651	0.223258
11245		9.732835	0.236188	2.219574	0.002854	-0.001309	0.004000	1.000000	0.000036	-0.000016	0.000050	0.163782	0.153311	0.974511	-0.750237	0.660798	0.022132	-0.640562	-0.734739	0.223247
11246		9.734545	0.274685	2.180554	-0.002668	0.000581	0.011345	1.000000	-0.000033	0.000007	0.000142	0.163617	0.153532	0.974504	-0.750277	0.660762	0.021868	-0.640557	-0.734726	0.223303
11247		9.734424	0.333818	2.171229	-0.010080	-0.000294	0.007872	1.000000	-0.000126	-0.000004	0.000098	0.163403	0.153723	0.974510	-0.750219	0.660838	0.021552	-0.640680	-0.734617	0.223309
11248		9.794975	0.317862	2.161771	-0.016267	-0.004115	0.006050	1.000000	-0.000203	-0.000051	0.000076	0.163212	0.153790	0.974531	-0.750035	0.661055	0.021293	-0.640944	-0.734408	0.223240
11249		9.702202	0.276023	2.232677	0.004553	-0.004523	0.004397	1.000000	0.000057	-0.000057	0.000055	0.163061	0.153815	0.974552	-0.750158	0.660918	0.021202	-0.640838	-0.734525	0.223156
11250		9.769716	0.234595	2.264064	-0.035615	-0.008423	0.003581	1.000000	-0.000445	-0.000105	0.000045	0.162875	0.153751	0.974593	-0.749622	0.661536	0.020914	-0.641513	-0.733983	0.223003
11251		9.753009	0.112834	2.087527	-0.001180	0.004013	0.009420	1.000000	-0.000015	0.000050	0.000118	0.162739	0.154030	0.974572	-0.749690	0.661467	0.020643	-0.641468	-0.733986	0.223121
11252		9.669553	0.301075	2.174433	0.034418	0.002827	0.014015	1.000000	0.000430	0.000035	0.000175	0.162558	0.154335	0.974554	-0.750317	0.660759	0.020514	-0.640780	-0.734560	0.223212
11253		9.685860	0.297234	2.170778	-0.021922	-0.000149	0.003140	1.000000	-0.000274	-0.000002	0.000039	0.162552	0.154396	0.974545	-0.749977	0.661150	0.020350	-0.641179	-0.734195	0.223265
11254		9.764603	0.245491	2.160686	-0.001220	-0.000864	0.000018	1.000000	-0.000015	-0.000011	0.000000	0.162563	0.154405	0.974542	-0.749976	0.661152	0.020351	-0.641178	-0.734192	0.223279
11255		9.794018	0.267132	2.198835	0.020229	0.002180	0.000858	1.000000	0.000253	0.000027	0.000011	0.162592	0.154491	0.974524	-0.750331	0.660746	0.020439	-0.640755	-0.734539	0.223351
11256		9.766380	0.263591	2.233018	0.002049	0.002671	-0.001265	1.000000	0.000026	0.000033	-0.000016	0.162682	0.154543	0.974500	-0.750375	0.660695	0.020490	-0.640681	-0.734574	0.223449
11257		9.735917	0.276372	2.222149	-0.012002	0.004045	0.005680	1.000000	-0.000150	0.000051	0.000071	0.162592	0.154767	0.974480	-0.750264	0.660829	0.020229	-0.640834	-0.734406	0.223562
11258		9.762198	0.268073	2.237973	-0.016897	0.000328	0.011733	1.000000	-0.000211	0.000004	0.000147	0.162390	0.154994	0.974477	-0.750075	0.661055	0.019851	-0.641106	-0.734155	0.223606
11259		9.746697	0.242020	2.137858	-0.009270	0.002437	0.008211	1.000000	-0.000116	0.000030	0.000103	0.162273	0.155209	0.974463	-0.749996	0.661152	0.019588	-0.641228	-0.734022	0.223693
11260		9.740620	0.335283	2.207761	0.013284	0.002227	0.009237	1.000000	0.000166	0.000028	0.000115	0.162097	0.155450	0.974454	-0.750305	0.660807	0.019395	-0.640911	-0.734282	0.223750
11261		9.749255	0.334210	2.243556	-0.018362	0.000058	0.004421	1.000000	-0.000230	0.000001	0.000055	0.162032	0.155548	0.974449	-0.750061	0.661090	0.019194	-0.641212	-0.734006	0.223788
11262		9.740053	0.238188	2.207927	-0.031490	0.003013	0.006050	1.000000	-0.000394	0.000038	0.000076	0.161941	0.155746	0.974432	-0.749626	0.661594	0.018836	-0.641745	-0.733510	0.223890
11263		9.741685	0.213196	2.179429	-0.019040	0.004610	0.012140	1.000000	-0.000238	0.000058	0.000152	0.161832	0.156043	0.974403	-0.749391	0.661871	0.018467	-0.642047	-0.733197	0.224049
11264		9.758516	0.224468	2.219441	-0.008661	0.006815	0.012295	1.000000	-0.000108	0.000085	0.000154	0.161719	0.156397	0.974365	-0.749338	0.661940	0.018121	-0.642137	-0.733059	0.224243
11265		9.727403	0.265622	2.190086	-0.020621	0.005496	0.010481	1.000000	-0.000258	0.000069	0.000131	0.161633	0.156692	0.974332	-0.749065	0.662258	0.017758	-0.642477	-0.732708	0.224415
11266		9.738864	0.237588	2.181479	-0.012123	0.009021	0.009669	1.000000	-0.000152	0.000113	0.000121	0.161588	0.157051	0.974281	-0.748955	0.662391	0.017441	-0.642616	-0.732511	0.224659
11267		9.747501	0.279852	2.196768	-0.010921	0.008170	0.008511	1.000000	-0.000137	0.000102	0.000106	0.161542	0.157379	0.974236	-0.748842	0.662527	0.017143	-0.642760	-0.732318	0.224877
11268		9.753176	0.281830	2.221506	-0.028973	0.008079	0.006252	1.000000	-0.000362	0.000101	0.000078	0.161609	0.157633	0.974184	-0.748399	0.663034	0.016868	-0.643258	-0.731805	0.225125
11269		9.741173	0.176342	2.206369	-0.028383	0.005486	0.003734	1.000000	-0.000355	0.000069	0.000047	0.161667	0.157805	0.974147	-0.747966	0.663528	0.016644	-0.643747	-0.731320	0.225303
11270		9.720559	0.184258	2.215618	-0.015641	0.008720	0.006348	1.000000	-0.000196	0.000109	0.000079	0.161624	0.158126	0.974102	-0.747805	0.663718	0.016335	-0.643946	-0.731078	0.225520
11271		9.700695	0.219212	2.189908	-0.013249	0.010558	0.008351	1.000000	-0.000166	0.000132	0.000104	0.161663	0.158473	0.974039	-0.747658	0.663890	0.016078	-0.644106	-0.730847	0.225810
11272		9.711084	0.240530	2.175899	-0.011011	0.008677	0.006600	1.000000	-0.000138	0.000108	0.000082	0.161731	0.158745	0.973983	-0.747509	0.664062	0.015893	-0.644262	-0.730631	0.226063
11273		9.758829	0.266258	2.192854	-0.025539	0.007989	0.006065	1.000000	-0.000319	0.000100	0.000076	0.161753	0.159014	0.973935	-0.747155	0.664467	0.015602	-0.644667	-0.730204	0.226288
11274		9.700596	0.212377	2.225163	-0.007939	0.003354	-0.001857	1.000000	-0.000099	0.000042	-0.000023	0.161891	0.159049	0.973907	-0.747031	0.664606	0.015640	-0.644776	-0.730070	0.226408
11275		9.765849	0.189738	2.242475	-0.026389	0.000413	-0.003701	1.000000	-0.000330	0.000005	-0.000046	0.161956	0.159026	0.973900	-0.746607	0.665083	0.015558	-0.645250	-0.729640	0.226444
11276		9.743084	0.087250	2.132425	0.011309	0.009930	0.001930	1.000000	0.000141	0.000124	0.000024	0.162071	0.159268	0.973841	-0.746824	0.664839	0.015558	-0.644970	-0.729810	0.226697
11277		9.648958	0.314940	2.229209	0.023963	0.008647	0.008688	1.000000	0.000300	0.000108	0.000109	0.162053	0.159593	0.973791	-0.747262	0.664349	0.015477	-0.644467	-0.730185	0.226918
11278		9.686545	0.249222	2.179022	-0.034590	-0.000914	-0.000867	1.000000	-0.000432	-0.000011	-0.000011	0.162046	0.159587	0.973793	-0.746757	0.664921	0.015297	-0.645054	-0.729666	0.226921
11279		9.731472	0.203323	2.146878	0.000600	-0.004024	-0.009643	1.000000	0.000008	-0.000050	-0.000121	0.162170	0.159372	0.973808	-0.746755	0.664918	0.015539	-0.645026	-0.729715	0.226842
11280		9.764612	0.222078	2.226503	0.024665	-0.002047	-0.006098	1.000000	0.000308	-0.000026	-0.000076	0.162252	0.159255	0.973813	-0.747142	0.664476	0.015819	-0.644557	-0.730143	0.226799
11281		9.707740	0.185487	2.253724	-0.000842	-0.001135	-0.008685	1.000000	-0.000011	-0.000014	-0.000109	0.162386	0.159115	0.973814	-0.747110	0.664508	0.016007	-0.644560	-0.730145	0.226783
11282		9.694962	0.159980	2.165859	0.003004	0.000953	0.000633	1.000000	0.000038	0.000012	0.000008	0.162351	0.159179	0.973809	-0.747199	0.664408	0.015967	-0.644465	-0.730222	0.226806
11283		9.726401	0.221628	2.164950	0.025331	-0.004905	0.004807	1.000000	0.000317	-0.000061	0.000060	0.162156	0.159200	0.973838	-0.747670	0.663879	0.015967	-0.643969	-0.730698	0.226681
11284		9.725541	0.288086	2.170234	0.015573	-0.011513	-0.001063	1.000000	0.000195	-0.000144	-0.000013	0.162025	0.158978	0.973896	-0.747914	0.663600	0.016104	-0.643717	-0.731000	0.226421
11285		9.703853	0.272791	2.181202	0.018016	-0.009789	-0.001092	1.000000	0.000225	-0.000122	-0.000014	0.161908	0.158791	0.973946	-0.748203	0.663271	0.016241	-0.643411	-0.731339	0.226197
11286		9.735826	0.260253	2.219233	0.011872	-0.013703	-0.004966	1.000000	0.000148	-0.000171	-0.000062	0.161774	0.158479	0.974019	-0.748397	0.663048	0.016418	-0.643220	-0.731609	0.225869
11287		9.739932	0.222310	2.202052	0.009272	-0.015079	0.001163	1.000000	0.000116	-0.000188	0.000015	0.161560	0.158220	0.974097	-0.748547	0.662877	0.016482	-0.643099	-0.731820	0.225529
11288		9.765235	0.251101	2.210502	0.002006	-0.017209	0.007485	1.000000	0.000025	-0.000215	0.000094	0.161157	0.158039	0.974193	-0.748617	0.662802	0.016317	-0.643119	-0.731927	0.225126
11289		9.727982	0.217955	2.211010	0.002279	-0.014632	0.005584	1.000000	0.000028	-0.000183	0.000070	0.160831	0.157875	0.974273	-0.748658	0.662759	0.016191	-0.643152	-0.732002	0.224787
11290		9.714431	0.259816	2.172259	0.000034	-0.018003	0.001872	1.000000	0.000000	-0.000225	0.000023	0.160511	0.157592	0.974372	-0.748685	0.662729	0.016145	-0.643200	-0.732089	0.224362
11291		9.724159	0.256580	2.158135	0.002123	-0.014535	0.000169	1.000000	0.000027	-0.000182	0.000002	0.160314	0.157328	0.974447	-0.748714	0.662695	0.016183	-0.643216	-0.732177	0.224033
11292		9.740375	0.302901	2.144538	0.004005	-0.015859	0.001136	1.000000	0.000050	-0.000198	0.000014	0.159981	0.157093	0.974540	-0.748834	0.662561	0.016126	-0.643159	-0.732348	0.223634
11293		9.781493	0.285903	2.171495	-0.009335	-0.015303	-0.003338	1.000000	-0.000117	-0.000191	-0.000042	0.159790	0.156774	0.974623	-0.748703	0.662709	0.016150	-0.643359	-0.732283	0.223271
11294		9.813404	0.224292	2.185701	-0.007112	-0.012455	-0.005162	1.000000	-0.000089	-0.000156	-0.000065	0.159748	0.156448	0.974682	-0.748539	0.662891	0.016282	-0.643561	-0.732188	0.223003
11295		9.778380	0.189117	2.200434	0.002787	-0.009089	-0.002169	1.000000	0.000035	-0.000114	-0.000027	0.159638	0.156260	0.974730	-0.748589	0.662832	0.016341	-0.643529	-0.732281	0.222788
11296		9.711301	0.246883	2.179758	-0.000784	-0.001922	-0.000792	1.000000	-0.000010	-0.000024	-0.000010	0.159688	0.156198	0.974732	-0.748568	0.662854	0.016415	-0.643541	-0.732275	0.222775
11297		9.718043	0.292685	2.134024	-0.006145	-0.001288	-0.001130	1.000000	-0.000077	-0.000016	-0.000014	0.159684	0.156169	0.974737	-0.748488	0.662945	0.016405	-0.643635	-0.732199	0.222752
11298		9.779434	0.292661	2.121203	-0.023702	-0.003460	-0.007795	1.000000	-0.000296	-0.000043	-0.000097	0.159800	0.155977	0.974749	-0.748076	0.663408	0.016482	-0.644085	-0.731820	0.222695
11299		9.782045	0.231545	2.187720	-0.003652	-0.005842	-0.010252	1.000000	-0.000046	-0.000073	-0.000128	0.159906	0.155707	0.974775	-0.747969	0.663523	0.016711	-0.644183	-0.731774	0.222565
11300		9.793268	0.185415	2.256774	-0.018167	-0.007450	-0.012346	1.000000	-0.000227	-0.000093	-0.000154	0.160025	0.155372	0.974808	-0.747636	0.663893	0.016916	-0.644540	-0.731509	0.222401
11301		9.769825	0.114948	2.126263	-0.026105	0.004681	-0.004394	1.000000	-0.000326	0.000059	-0.000055	0.160151	0.155407	0.974782	-0.747226	0.664356	0.016848	-0.644984	-0.731081	0.222522
11302		9.680640	0.183451	2.086607	0.030826	0.006215	0.001588	1.000000	0.000385	0.000078	0.000020	0.160230	0.155553	0.974746	-0.747742	0.663772	0.016988	-0.644366	-0.731581	0.222670
11303		9.667285	0.278816	2.150757	0.002791	-0.001456	-0.005487	1.000000	0.000035	-0.000018	-0.000069	0.160316	0.155441	0.974750	-0.747777	0.663728	0.017143	-0.644304	-0.731644	0.222642
11304		9.741484	0.207801	2.132737	0.003879	-0.006134	-0.012439	1.000000	0.000048	-0.000077	-0.000155	0.160459	0.155126	0.974776	-0.747812	0.663681	0.017480	-0.644228	-0.731754	0.222499
11305		9.827453	0.230506	2.209870	0.024043	-0.000862	-0.010764	1.000000	0.000301	-0.000011	-0.000135	0.160691	0.154923	0.974770	-0.748130	0.663310	0.017908	-0.643801	-0.732133	0.222490
11306		9.791786	0.262951	2.263519	0.017741	-0.000897	-0.004205	1.000000	0.000222	-0.000011	-0.000053	0.160824	0.154817	0.974765	-0.748358	0.663046	0.018162	-0.643503	-0.732394	0.222493
11307		9.751784	0.263164	2.219599	-0.013317	0.001068	0.001069	1.000000	-0.000166	0.000013	0.000013	0.160850	0.154851	0.974756	-0.748127	0.663310	0.018079	-0.643765	-0.732149	0.222542
11308		9.662603	0.280910	2.155489	-0.001777	0.001063	0.012461	1.000000	-0.000022	0.000013	0.000156	0.160679	0.155066	0.974750	-0.748138	0.663304	0.017803	-0.643795	-0.732108	0.222590
11309		9.687177	0.307290	2.167450	-0.011777	-0.004703	0.010803	1.000000	-0.000147	-0.000059	0.000135	0.160421	0.155145	0.974780	-0.747938	0.663538	0.017482	-0.644091	-0.731879	0.222484
11310		9.756054	0.257132	2.136662	-0.022584	-0.006469	0.003894	1.000000	-0.000282	-0.000081	0.000049	0.160268	0.155074	0.974816	-0.747535	0.663998	0.017271	-0.644598	-0.731477	0.222341
11311		9.780615	0.240671	2.169165	0.011813	-0.011228	0.005746	1.000000	0.000148	-0.000140	0.000072	0.159991	0.154953	0.974881	-0.747694	0.663821	0.017195	-0.644482	-0.731663	0.222063
11312		9.757263	0.247930	2.255779	0.001243	-0.008871	0.006097	1.000000	0.000016	-0.000111	0.000076	0.159748	0.154880	0.974932	-0.747679	0.663841	0.017052	-0.644559	-0.731660	0.221847
11313		9.730727	0.216847	2.183361	-0.023510	-0.004229	0.007552	1.000000	-0.000294	-0.000053	0.000094	0.159554	0.154914	0.974958	-0.747285	0.664292	0.016743	-0.645064	-0.731244	0.221756
11314		9.732376	0.206431	2.120399	-0.007536	-0.003797	0.009823	1.000000	-0.000094	-0.000047	0.000123	0.159343	0.154987	0.974981	-0.747139	0.664464	0.016480	-0.645286	-0.731072	0.221675
11315		9.719411	0.250628	2.158901	0.006920	-0.010859	0.004150	1.000000	0.000086	-0.000136	0.000052	0.159097	0.154849	0.975044	-0.747214	0.664381	0.016411	-0.645259	-0.731177	0.221406
11316		9.742482	0.253319	2.174804	0.003019	-0.011123	-0.001979	1.000000	0.000038	-0.000139	-0.000025	0.158962	0.154603	0.975105	-0.747194	0.664402	0.016467	-0.645316	-0.731210	0.221134
11317		9.747853	0.259505	2.165884	-0.000973	-0.007345	-0.005696	1.000000	-0.000012	-0.000092	-0.000071	0.159031	0.154333	0.975136	-0.747040	0.664571	0.016651	-0.645477	-0.731113	0.220980
11318		9.778792	0.229270	2.162625	-0.011285	-0.005313	-0.003992	1.000000	-0.000141	-0.000066	-0.000050	0.159087	0.154132	0.975159	-0.746740	0.664906	0.016729	-0.645810	-0.730851	0.220875
11319		9.763117	0.214594	2.151978	-0.003835	-0.006294	-0.003707	1.000000	-0.000048	-0.000079	-0.000046	0.159109	0.153926	0.975188	-0.746559	0.665106	0.016824	-0.646014	-0.730712	0.220739
11320		9.746838	0.235188	2.167593	0.012456	-0.007217	-0.003722	1.000000	0.000156	-0.000090	-0.000047	0.159142	0.153690	0.975220	-0.746612	0.665042	0.017029	-0.645945	-0.730821	0.220583
11321		9.724619	0.299611	2.184273	0.008551	-0.003947	-0.005525	1.000000	0.000107	-0.000049	-0.000069	0.159222	0.153501	0.975236	-0.746644	0.665001	0.017231	-0.645888	-0.730897	0.220494
11322		9.771098	0.298795	2.158286	-0.001558	-0.004753	-0.003174	1.000000	-0.000019	-0.000059	-0.000040	0.159201	0.153357	0.975262	-0.746564	0.665089	0.017285	-0.645985	-0.730848	0.220374
11323		9.752017	0.322487	2.162034	0.001537	-0.000771	0.003684	1.000000	0.000019	-0.000010	0.000046	0.159149	0.153383	0.975267	-0.746538	0.665120	0.017218	-0.646028	-0.730814	0.220360
11324		9.806532	0.288611	2.162270	-0.022900	-0.001296	0.004538	1.000000	-0.000286	-0.000016	0.000057	0.159029	0.153434	0.975278	-0.746164	0.665546	0.016964	-0.646489	-0.730416	0.220328
11325		9.753502	0.257212	2.199923	-0.003647	-0.000871	0.001197	1.000000	-0.000046	-0.000011	0.000015	0.159007	0.153424	0.975284	-0.746047	0.665679	0.016913	-0.646631	-0.730296	0.220309
11326		9.784910	0.190586	2.171082	-0.025549	-0.003710	-0.000397	1.000000	-0.000319	-0.000046	-0.000005	0.158943	0.153347	0.975306	-0.745609	0.666173	0.016767	-0.647151	-0.729862	0.220220
11327		9.764207	0.144058	2.064659	0.006170	0.010059	0.010922	1.000000	0.000077	0.000126	0.000137	0.158963	0.153675	0.975251	-0.745645	0.666137	0.016572	-0.647104	-0.729826	0.220478
11328		9.677094	0.292224	2.134867	0.023090	0.009963	0.010675	1.000000	0.000289	0.000125	0.000133	0.158999	0.153990	0.975196	-0.745946	0.665803	0.016487	-0.646749	-0.730065	0.220730
11329		9.705307	0.295304	2.132634	-0.006181	0.009079	0.000336	1.000000	-0.000077	0.000113	0.000004	0.159185	0.154132	0.975143	-0.745754	0.666018	0.016467	-0.646925	-0.729838	0.220964
11330		9.784002	0.275553	2.134290	-0.003957	0.008392	-0.005812	1.000000	-0.000049	0.000105	-0.000073	0.159486	0.154149	0.975091	-0.745568	0.666222	0.016624	-0.647065	-0.729648	0.221182
11331		9.798774	0.264445	2.181285	0.001381	0.009580	-0.002300	1.000000	0.000017	0.000120	-0.000029	0.159725	0.154256	0.975035	-0.745500	0.666296	0.016713	-0.647083	-0.729558	0.221422
11332		9.788716	0.239992	2.229503	-0.019761	0.010488	0.000066	1.000000	-0.000247	0.000131	0.000001	0.159927	0.154424	0.974975	-0.745086	0.666761	0.016611	-0.647510	-0.729097	0.221692
11333		9.736739	0.177293	2.103390	-0.017316	0.012211	0.000032	1.000000	-0.000216	0.000153	0.000000	0.160215	0.154591	0.974901	-0.744654	0.667245	0.016571	-0.647936	-0.728619	0.222020
11334		9.686851	0.261938	2.123016	0.005525	0.014240	0.005117	1.000000	0.000069	0.000178	0.000064	0.160429	0.154884	0.974820	-0.744646	0.667255	0.016532	-0.647892	-0.728548	0.222380
11335		9.712442	0.272718	2.153498	-0.005525	0.003078	0.002966	1.000000	-0.000069	0.000038	0.000037	0.160470	0.154956	0.974802	-0.744487	0.667434	0.016460	-0.648066	-0.728368	0.222465
11336		9.785301	0.247198	2.131313	-0.002593	0.003627	0.000091	1.000000	-0.000032	0.000045	0.000001	0.160529	0.155011	0.974783	-0.744412	0.667518	0.016442	-0.648136	-0.728280	0.222548
11337		9.779798	0.263120	2.197662	0.010135	0.002513	-0.001193	1.000000	0.000127	0.000031	-0.000015	0.160623	0.155008	0.974768	-0.744504	0.667412	0.016547	-0.648007	-0.728377	0.222606
11338		9.722005	0.269062	2.174848	-0.013983	0.003271	0.000090	1.000000	-0.000175	0.000041	0.000001	0.160642	0.155076	0.974754	-0.744286	0.667659	0.016441	-0.648253	-0.728137	0.222675
11339		9.734584	0.191034	2.125353	-0.010951	0.004738	0.006251	1.000000	-0.000137	0.000059	0.000078	0.160661	0.155226	0.974727	-0.744026	0.667952	0.016264	-0.648547	-0.727836	0.222806
11340		9.751082	0.234459	2.145633	0.005402	0.001303	0.012997	1.000000	0.000068	0.000016	0.000162	0.160528	0.155406	0.974720	-0.744030	0.667953	0.016039	-0.648575	-0.727796	0.222852
11341		9.742151	0.238680	2.201804	0.007024	0.001499	0.008227	1.000000	0.000088	0.000019	0.000103	0.160354	0.155586	0.974720	-0.744203	0.667765	0.015841	-0.648420	-0.727930	0.222866
11342		9.738179	0.245447	2.205784	-0.005729	0.002103	0.003974	1.000000	-0.000072	0.000026	0.000050	0.160366	0.155647	0.974709	-0.744040	0.667950	0.015753	-0.648604	-0.727748	0.222924
11343		9.731281	0.208581	2.173486	-0.005304	0.001954	0.004753	1.000000	-0.000066	0.000024	0.000059	0.160311	0.155749	0.974701	-0.743949	0.668054	0.015609	-0.648722	-0.727630	0.222966
11344		9.723494	0.219946	2.135406	0.000471	0.002077	0.007461	1.000000	0.000006	0.000026	0.000093	0.160225	0.155888	0.974693	-0.743924	0.668086	0.015440	-0.648772	-0.727572	0.223013
11345		9.737110	0.224019	2.164448	0.007002	-0.000213	0.007081	1.000000	0.000088	-0.000003	0.000089	0.160154	0.155956	0.974694	-0.743961	0.668047	0.015350	-0.648747	-0.727593	0.223016
11346		9.752983	0.241380	2.219559	0.009449	0.001506	0.007050	1.000000	0.000118	0.000019	0.000088	0.160071	0.156072	0.974689	-0.744093	0.667902	0.015252	-0.648616	-0.727701	0.223044
11347		9.764625	0.215497	2.209358	0.003661	0.002296	0.005932	1.000000	0.000046	0.000029	0.000074	0.159972	0.156216	0.974682	-0.744168	0.667822	0.015104	-0.648555	-0.727743	0.223084
11348		9.721839	0.221413	2.199029	0.005538	0.004502	0.011221	1.000000	0.000069	0.000056	0.000140	0.159860	0.156460	0.974662	-0.744250	0.667735	0.014879	-0.648488	-0.727771	0.223189
11349		9.693422	0.259450	2.182453	0.000465	0.005615	0.011785	1.000000	0.000006	0.000070	0.000147	0.159753	0.156735	0.974635	-0.744240	0.667753	0.014605	-0.648526	-0.727695	0.223323
11350		9.753675	0.304850	2.165621	-0.004581	0.004905	0.009168	1.000000	-0.000057	0.000061	0.000115	0.159701	0.156940	0.974610	-0.744127	0.667884	0.014385	-0.648669	-0.727531	0.223445
11351		9.758262	0.249871	2.213819	0.007111	-0.002545	0.005814	1.000000	0.000089	-0.000032	0.000073	0.159575	0.156965	0.974627	-0.744206	0.667797	0.014299	-0.648609	-0.727605	0.223378
11352		9.741683	0.209539	2.284238	-0.002391	-0.008943	0.006837	1.000000	-0.000030	-0.000112	0.000085	0.159298	0.156906	0.974682	-0.744166	0.667845	0.014112	-0.648723	-0.727573	0.223151
11353		9.726721	0.149657	2.156367	-0.017631	0.003577	0.014377	1.000000	-0.000220	0.000045	0.000180	0.159134	0.157173	0.974666	-0.743853	0.668203	0.013696	-0.649122	-0.727187	0.223248
11354		9.685609	0.208447	2.075340	0.017000	0.005243	0.014726	1.000000	0.000213	0.000066	0.000184	0.158918	0.157516	0.974646	-0.744203	0.667819	0.013415	-0.648774	-0.727466	0.223352
11355		9.667332	0.248042	2.122669	0.005800	-0.001707	-0.000471	1.000000	0.000072	-0.000021	-0.000006	0.158903	0.157458	0.974657	-0.744249	0.667767	0.013459	-0.648724	-0.727526	0.223299
11356		9.719733	0.190117	2.128451	0.008413	-0.005972	-0.008126	1.000000	0.000105	-0.000075	-0.000102	0.159037	0.157155	0.974684	-0.744241	0.667769	0.013767	-0.648700	-0.727590	0.223161
11357		9.811991	0.215385	2.228065	0.022091	-0.002661	-0.000466	1.000000	0.000276	-0.000033	-0.000006	0.159018	0.157077	0.974700	-0.744545	0.667427	0.013911	-0.648356	-0.727920	0.223084
11358		9.776392	0.259564	2.248986	0.005764	-0.002504	-0.000027	1.000000	0.000072	-0.000031	-0.000000	0.159026	0.156990	0.974713	-0.744558	0.667411	0.013981	-0.648339	-0.727954	0.223024
11359		9.753691	0.205683	2.160809	-0.019357	-0.001315	-0.005720	1.000000	-0.000242	-0.000016	-0.000072	0.159114	0.156853	0.974720	-0.744183	0.667829	0.014014	-0.648748	-0.727600	0.222988
11360		9.688982	0.194188	2.117328	-0.002812	-0.002595	-0.004371	1.000000	-0.000035	-0.000032	-0.000055	0.159263	0.156656	0.974728	-0.743963	0.668070	0.014187	-0.648964	-0.727421	0.222945
11361		9.679899	0.232939	2.152512	0.014857	-0.010140	-0.001641	1.000000	0.000186	-0.000127	-0.000021	0.159145	0.156420	0.974785	-0.744146	0.667864	0.014321	-0.648784	-0.727661	0.222686
11362		9.760955	0.275341	2.170217	0.009140	-0.007750	-0.003647	1.000000	0.000114	-0.000097	-0.000046	0.159147	0.156172	0.974824	-0.744166	0.667838	0.014500	-0.648760	-0.727738	0.222502
11363		9.807613	0.278417	2.188971	0.009031	-0.008955	-0.006703	1.000000	0.000113	-0.000112	-0.000084	0.159187	0.155851	0.974869	-0.744179	0.667817	0.014755	-0.648735	-0.727826	0.222289
11364		9.776277	0.236301	2.200601	0.000528	-0.008642	-0.007543	1.000000	0.000007	-0.000108	-0.000094	0.159252	0.155513	0.974912	-0.744054	0.667951	0.014993	-0.648863	-0.727775	0.222083
11365		9.708710	0.185100	2.165438	-0.010489	-0.004293	-0.004793	1.000000	-0.000131	-0.000054	-0.000060	0.159275	0.155336	0.974937	-0.743814	0.668217	0.015051	-0.649132	-0.727569	0.221972
11366		9.732501	0.198013	2.134098	0.004773	-0.005398	0.000187	1.000000	0.000060	-0.000067	0.000002	0.159233	0.155198	0.974966	-0.743797	0.668234	0.015107	-0.649161	-0.727583	0.221841
11367		9.750507	0.261496	2.194612	0.007210	-0.006304	-0.002581	1.000000	0.000090	-0.000079	-0.000032	0.159273	0.154971	0.974996	-0.743755	0.668278	0.015278	-0.649200	-0.727591	0.221698
11368		9.749792	0.249065	2.196278	-0.007966	-0.005706	-0.005647	1.000000	-0.000100	-0.000071	-0.000071	0.159335	0.154728	0.975024	-0.743497	0.668562	0.015404	-0.649481	-0.727381	0.221565
11369		9.759103	0.229381	2.171763	-0.002727	-0.003102	-0.002457	1.000000	-0.000034	-0.000039	-0.000031	0.159436	0.154557	0.975035	-0.743269	0.668813	0.015521	-0.649716	-0.727188	0.221510
11370		9.725317	0.233834	2.150184	-0.006342	0.000367	0.002618	1.000000	-0.000079	0.000005	0.000033	0.159443	0.154561	0.975033	-0.743078	0.669026	0.015459	-0.649933	-0.726990	0.221523
11371		9.731587	0.234284	2.126962	-0.006231	-0.001964	0.001350	1.000000	-0.000078	-0.000025	0.000017	0.159463	0.154491	0.975041	-0.742853	0.669277	0.015446	-0.650186	-0.726774	0.221489
11372		9.770487	0.234582	2.140990	0.000839	-0.002920	-0.001176	1.000000	0.000010	-0.000037	-0.000015	0.159381	0.154435	0.975063	-0.742934	0.669186	0.015449	-0.650112	-0.726870	0.221390
11373		9.770520	0.238734	2.186315	-0.003777	0.000032	-0.004660	1.000000	-0.000047	0.000000	-0.000058	0.159500	0.154325	0.975061	-0.742789	0.669345	0.015567	-0.650249	-0.726747	0.221391
11374		9.757404	0.201881	2.176586	0.001824	-0.000302	0.004585	1.000000	0.000023	-0.000004	0.000057	0.159442	0.154363	0.975064	-0.742762	0.669376	0.015487	-0.650294	-0.726710	0.221381
11375		9.736632	0.241806	2.165345	0.001060	0.003025	0.009261	1.000000	0.000013	0.000038	0.000116	0.159383	0.154519	0.975049	-0.742710	0.669438	0.015317	-0.650368	-0.726620	0.221460
11376		9.745539	0.298358	2.146838	0.003403	0.002348	0.010560	1.000000	0.000043	0.000029	0.000132	0.159242	0.154715	0.975041	-0.742753	0.669395	0.015089	-0.650354	-0.726618	0.221511
11377		9.775791	0.282345	2.158669	-0.016286	-0.000240	0.004397	1.000000	-0.000204	-0.000003	0.000055	0.159224	0.154727	0.975042	-0.742385	0.669807	0.014941	-0.650778	-0.726236	0.221517
11378		9.741807	0.227456	2.191647	0.003426	-0.003014	0.003057	1.000000	0.000043	-0.000038	0.000038	0.159155	0.154687	0.975060	-0.742373	0.669821	0.014912	-0.650809	-0.726231	0.221440
11379		9.765551	0.166203	2.247697	-0.022846	-0.003469	0.005289	1.000000	-0.000286	-0.000043	0.000066	0.159083	0.154650	0.975078	-0.741884	0.670367	0.014716	-0.651384	-0.725735	0.221376
11380		9.769361	0.141209	2.062482	0.001227	0.011462	0.012959	1.000000	0.000015	0.000143	0.000162	0.159132	0.154996	0.975015	-0.741779	0.670488	0.014480	-0.651491	-0.725550	0.221669
11381		9.695652	0.261019	2.105637	0.034753	0.009027	0.010436	1.000000	0.000434	0.000113	0.000130	0.159129	0.155289	0.974968	-0.742306	0.669905	0.014455	-0.650892	-0.726025	0.221873
11382		9.683975	0.271979	2.149821	0.000883	0.001691	-0.003273	1.000000	0.000011	0.000021	-0.000041	0.159277	0.155207	0.974957	-0.742192	0.670028	0.014587	-0.650985	-0.725929	0.221913
11383		9.783446	0.228423	2.174314	0.001296	-0.001082	-0.005228	1.000000	0.000016	-0.000014	-0.000065	0.159389	0.155067	0.974961	-0.742123	0.670102	0.014745	-0.651037	-0.725891	0.221886
11384		9.830622	0.243997	2.192421	0.019841	0.004865	0.002800	1.000000	0.000248	0.000061	0.000035	0.159466	0.155158	0.974934	-0.742363	0.669834	0.014823	-0.650744	-0.726119	0.222000
11385		9.758393	0.286096	2.259226	-0.005243	0.005664	0.001066	1.000000	-0.000066	0.000071	0.000013	0.159617	0.155218	0.974900	-0.742149	0.670070	0.014825	-0.650951	-0.725888	0.222149
11386		9.704239	0.210371	2.105738	-0.026761	0.006644	0.000612	1.000000	-0.000335	0.000083	0.000008	0.159776	0.155297	0.974861	-0.741577	0.670707	0.014697	-0.651564	-0.725283	0.222327
11387		9.675993	0.235556	2.121898	0.004899	0.005780	0.008647	1.000000	0.000061	0.000072	0.000108	0.159723	0.155524	0.974834	-0.741658	0.670620	0.014528	-0.651484	-0.725314	0.222459
11388		9.731302	0.297330	2.169266	-0.006630	-0.006015	0.006165	1.000000	-0.000083	-0.000075	0.000077	0.159575	0.155462	0.974868	-0.741451	0.670853	0.014387	-0.651757	-0.725112	0.222319
11389		9.785085	0.233220	2.158499	-0.009909	-0.003342	-0.002992	1.000000	-0.000124	-0.000042	-0.000037	0.159657	0.155286	0.974883	-0.741132	0.671204	0.014462	-0.652099	-0.724825	0.222250
11390		9.778756	0.249414	2.194022	0.004963	-0.003512	0.000765	1.000000	0.000062	-0.000044	0.000010	0.159580	0.155215	0.974906	-0.741222	0.671103	0.014482	-0.652015	-0.724933	0.222144
11391		9.722014	0.206088	2.175898	-0.014506	-0.000141	0.005032	1.000000	-0.000181	-0.000002	0.000063	0.159488	0.155278	0.974911	-0.740984	0.671370	0.014288	-0.652308	-0.724673	0.222134
11392		9.730678	0.214356	2.133216	-0.015693	-0.001390	0.008992	1.000000	-0.000196	-0.000017	0.000112	0.159327	0.155364	0.974924	-0.740694	0.671697	0.014006	-0.652677	-0.724352	0.222097
11393		9.738644	0.196040	2.125344	0.001701	-0.005324	0.003180	1.000000	0.000021	-0.000067	0.000040	0.159221	0.155279	0.974955	-0.740654	0.671741	0.013970	-0.652748	-0.724329	0.221964
11394		9.751012	0.223327	2.182622	0.011487	-0.004622	-0.004007	1.000000	0.000144	-0.000058	-0.000050	0.159309	0.155054	0.974976	-0.740666	0.671723	0.014196	-0.652713	-0.724394	0.221855
11395		9.761222	0.221004	2.200916	0.007327	-0.001292	-0.001179	1.000000	0.000092	-0.000016	-0.000015	0.159290	0.155006	0.974987	-0.740791	0.671584	0.014258	-0.652576	-0.724533	0.221803
11396		9.734441	0.257839	2.166498	0.001105	-0.000625	0.002904	1.000000	0.000014	-0.000008	0.000036	0.159325	0.154968	0.974987	-0.740651	0.671739	0.014263	-0.652727	-0.724398	0.221802
11397		9.732963	0.274961	2.150374	-0.021242	-0.001162	-0.002284	1.000000	-0.000266	-0.000015	-0.000029	0.159360	0.154880	0.974996	-0.740258	0.672172	0.014217	-0.653163	-0.724014	0.221769
11398		9.736340	0.218883	2.123238	-0.009890	-0.000435	-0.006233	1.000000	-0.000124	-0.000005	-0.000078	0.159465	0.154750	0.974999	-0.740059	0.672389	0.014320	-0.653363	-0.723841	0.221747
11399		9.756618	0.199845	2.193923	0.003742	0.001828	-0.009647	1.000000	0.000047	0.000023	-0.000121	0.159685	0.154593	0.974988	-0.740058	0.672385	0.014595	-0.653311	-0.723878	0.221777
11400		9.784828	0.223459	2.203524	-0.004400	0.004217	-0.010470	1.000000	-0.000055	0.000053	-0.000131	0.159950	0.154478	0.974963	-0.739919	0.672532	0.014830	-0.653403	-0.723766	0.221873
11401		9.746489	0.176917	2.196030	-0.005955	0.006817	-0.010974	1.000000	-0.000074	0.000085	-0.000137	0.160268	0.154398	0.974923	-0.739749	0.672714	0.015070	-0.653518	-0.723614	0.222030
11402		9.711360	0.232496	2.170978	0.001710	0.009420	-0.008958	1.000000	0.000021	0.000118	-0.000112	0.160605	0.154385	0.974870	-0.739689	0.672775	0.015316	-0.653503	-0.723560	0.222248
11403		9.707543	0.283940	2.108750	0.001469	0.007644	-0.007506	1.000000	0.000018	0.000096	-0.000094	0.160910	0.154354	0.974824	-0.739603	0.672864	0.015542	-0.653526	-0.723483	0.222432
11404		9.759540	0.291831	2.153843	-0.006500	0.005481	-0.008837	1.000000	-0.000081	0.000069	-0.000110	0.161261	0.154228	0.974786	-0.739275	0.673219	0.015784	-0.653810	-0.723181	0.222581
11405		9.771833	0.286313	2.186947	0.003085	0.004023	-0.010624	1.000000	0.000039	0.000050	-0.000133	0.161599	0.154060	0.974757	-0.739138	0.673361	0.016113	-0.653881	-0.723084	0.222686
11406		9.771161	0.246626	2.254996	-0.016291	-0.002582	-0.004329	1.000000	-0.000204	-0.000032	-0.000054	0.161626	0.153923	0.974774	-0.738853	0.673673	0.016131	-0.654196	-0.722822	0.222610
11407		9.769407	0.129552	2.120181	-0.034843	0.005893	-0.001045	1.000000	-0.000436	0.000074	-0.000013	0.161716	0.154008	0.974746	-0.738294	0.674291	0.015950	-0.654806	-0.722228	0.222746
11408		9.681301	0.210547	2.078383	0.026533	0.011007	0.006144	1.000000	0.000332	0.000138	0.000077	0.161798	0.154281	0.974689	-0.738701	0.673844	0.015963	-0.654326	-0.722587	0.222994
11409		9.673205	0.295160	2.169432	-0.005291	0.001047	0.003163	1.000000	-0.000066	0.000013	0.000040	0.161830	0.154290	0.974682	-0.738497	0.674069	0.015912	-0.654548	-0.722375	0.223027
11410		9.772507	0.199116	2.124364	-0.009387	-0.003715	-0.006288	1.000000	-0.000117	-0.000046	-0.000079	0.161941	0.154065	0.974699	-0.738225	0.674363	0.016059	-0.654827	-0.722148	0.222942
11411		9.809029	0.256754	2.195048	0.018537	0.000983	-0.003402	1.000000	0.000232	0.000012	-0.000043	0.162052	0.153982	0.974694	-0.738447	0.674115	0.016277	-0.654550	-0.722398	0.222949
11412		9.758243	0.224218	2.245609	0.007023	0.000351	-0.004874	1.000000	0.000088	0.000004	-0.000061	0.162160	0.153877	0.974693	-0.738515	0.674036	0.016455	-0.654446	-0.722494	0.222942
11413		9.724236	0.161274	2.142631	-0.016427	0.006582	-0.005922	1.000000	-0.000205	0.000082	-0.000074	0.162437	0.153834	0.974653	-0.738082	0.674508	0.016550	-0.654866	-0.722063	0.223107
11414		9.686852	0.205945	2.136618	0.021622	0.006154	-0.000921	1.000000	0.000270	0.000077	-0.000012	0.162595	0.153883	0.974619	-0.738358	0.674202	0.016729	-0.654516	-0.722338	0.223243
11415		9.720333	0.285111	2.208263	0.008936	-0.003995	-0.002702	1.000000	0.000112	-0.000050	-0.000034	0.162570	0.153750	0.974645	-0.738487	0.674057	0.016847	-0.654376	-0.722501	0.223124
11416		9.725630	0.209419	2.150840	-0.006041	-0.001219	-0.011178	1.000000	-0.000076	-0.000015	-0.000140	0.162764	0.153512	0.974650	-0.738312	0.674243	0.017099	-0.654526	-0.722378	0.223082
11417		9.767197	0.191496	2.165075	0.018338	0.001492	-0.012759	1.000000	0.000229	0.000019	-0.000159	0.163029	0.153298	0.974639	-0.738531	0.673992	0.017525	-0.654212	-0.722658	0.223095
11418		9.745431	0.209602	2.189610	0.029091	0.004548	-0.008200	1.000000	0.000364	0.000057	-0.000103	0.163271	0.153210	0.974612	-0.738919	0.673556	0.017903	-0.653713	-0.723083	0.223182
11419		9.719020	0.279223	2.166150	0.022000	0.001407	0.001949	1.000000	0.000275	0.000018	0.000024	0.163325	0.153210	0.974603	-0.739166	0.673282	0.018029	-0.653421	-0.723338	0.223211
11420		9.748614	0.300622	2.204161	0.019348	-0.001289	0.002990	1.000000	0.000242	-0.000016	0.000037	0.163284	0.153198	0.974612	-0.739408	0.673015	0.018088	-0.653158	-0.723589	0.223169
11421		9.742250	0.313070	2.194350	-0.001002	-0.001986	0.001806	1.000000	-0.000013	-0.000025	0.000023	0.163244	0.153155	0.974626	-0.739362	0.673065	0.018071	-0.653219	-0.723551	0.223111
11422		9.738736	0.240969	2.192909	-0.016074	-0.004005	0.003439	1.000000	-0.000201	-0.000050	0.000043	0.163141	0.153104	0.974651	-0.739066	0.673394	0.017927	-0.653579	-0.723256	0.223012
11423		9.724591	0.202649	2.153436	-0.001417	-0.000405	0.008149	1.000000	-0.000018	-0.000005	0.000102	0.163056	0.153168	0.974655	-0.738934	0.673543	0.017772	-0.653750	-0.723104	0.223006
11424		9.750801	0.208775	2.136006	0.002283	-0.000842	0.009312	1.000000	0.000029	-0.000011	0.000116	0.162890	0.153272	0.974666	-0.738956	0.673524	0.017582	-0.653766	-0.723100	0.222971
11425		9.759151	0.237952	2.151823	0.001245	-0.003626	0.011561	1.000000	0.000016	-0.000045	0.000145	0.162732	0.153313	0.974686	-0.738824	0.673674	0.017388	-0.653955	-0.722952	0.222899
11426		9.761724	0.248357	2.176794	0.013121	-0.005643	0.013110	1.000000	0.000164	-0.000071	0.000164	0.162446	0.153379	0.974724	-0.739002	0.673484	0.017184	-0.653825	-0.723114	0.222752
11427		9.760462	0.266987	2.205078	-0.004770	-0.005522	0.010309	1.000000	-0.000060	-0.000069	0.000129	0.162136	0.153442	0.974765	-0.739000	0.673493	0.016903	-0.653904	-0.723092	0.222591
11428		9.747737	0.148662	2.189969	-0.013106	-0.003841	0.004513	1.000000	-0.000164	-0.000048	0.000056	0.162072	0.153379	0.974786	-0.738659	0.673871	0.016781	-0.654306	-0.722754	0.222510
11429		9.726271	0.171741	2.135150	0.011732	-0.001680	0.007645	1.000000	0.000147	-0.000021	0.000096	0.161921	0.153442	0.974801	-0.738830	0.673685	0.016681	-0.654150	-0.722913	0.222451
11430		9.712874	0.229760	2.142697	0.015236	-0.000470	0.012551	1.000000	0.000190	-0.000006	0.000157	0.161711	0.153604	0.974810	-0.739076	0.673420	0.016492	-0.653924	-0.723126	0.222425
11431		9.744163	0.306614	2.155326	0.009667	0.000385	0.008835	1.000000	0.000121	0.000005	0.000110	0.161628	0.153694	0.974810	-0.739155	0.673336	0.016393	-0.653855	-0.723185	0.222433
11432		9.818105	0.297470	2.174848	0.006076	-0.000319	0.002018	1.000000	0.000076	-0.000004	0.000025	0.161605	0.153687	0.974815	-0.739199	0.673288	0.016395	-0.653812	-0.723231	0.222412
11433		9.768281	0.215302	2.230646	0.000525	-0.005106	-0.003218	1.000000	0.000007	-0.000064	-0.000040	0.161586	0.153512	0.974846	-0.739159	0.673329	0.016489	-0.653861	-0.723230	0.222271
11434		9.779191	0.093892	2.172524	-0.024048	-0.001424	0.002053	1.000000	-0.000301	-0.000018	0.000026	0.161574	0.153469	0.974854	-0.738669	0.673870	0.016343	-0.654417	-0.722735	0.222243
11435		9.692886	0.153878	2.100272	0.046511	0.014353	0.007208	1.000000	0.000581	0.000179	0.000090	0.161733	0.153798	0.974776	-0.739361	0.673108	0.016471	-0.653596	-0.723376	0.222576
11436		9.646875	0.332427	2.178618	0.021202	0.008923	0.001009	1.000000	0.000265	0.000112	0.000013	0.161931	0.153914	0.974725	-0.739591	0.672851	0.016621	-0.653287	-0.723590	0.222789
11437		9.720953	0.225992	2.135916	-0.001222	-0.002031	-0.013081	1.000000	-0.000015	-0.000025	-0.000164	0.162185	0.153604	0.974732	-0.739417	0.673034	0.016970	-0.653421	-0.723485	0.222733
11438		9.804826	0.218298	2.174512	0.019738	0.001581	-0.014938	1.000000	0.000247	0.000020	-0.000187	0.162542	0.153324	0.974716	-0.739565	0.672858	0.017487	-0.653164	-0.723709	0.222761
11439		9.792669	0.254384	2.277135	0.034159	0.006040	-0.006052	1.000000	0.000427	0.000076	-0.000076	0.162857	0.153248	0.974676	-0.739907	0.672471	0.017897	-0.652698	-0.724084	0.222906
11440		9.749664	0.260668	2.222137	-0.011214	0.009551	-0.006691	1.000000	-0.000140	0.000119	-0.000084	0.163202	0.153244	0.974619	-0.739576	0.672831	0.018051	-0.652987	-0.723751	0.223143
11441		9.699603	0.243899	2.102329	-0.006350	0.007465	-0.006242	1.000000	-0.000079	0.000093	-0.000078	0.163467	0.153235	0.974576	-0.739397	0.673023	0.018199	-0.653123	-0.723574	0.223318
11442		9.707758	0.263527	2.151850	0.011071	-0.000652	-0.006431	1.000000	0.000138	-0.000008	-0.000080	0.163626	0.153063	0.974576	-0.739483	0.672921	0.018469	-0.652986	-0.723705	0.223295
11443		9.734388	0.243434	2.153552	0.009726	-0.000623	-0.012272	1.000000	0.000122	-0.000008	-0.000153	0.163814	0.152836	0.974580	-0.739618	0.672764	0.018816	-0.652786	-0.723900	0.223248
11444		9.776626	0.256568	2.177899	0.020621	0.000913	-0.009431	1.000000	0.000258	0.000011	-0.000118	0.164065	0.152634	0.974569	-0.739808	0.672544	0.019212	-0.652508	-0.724146	0.223261
11445		9.748863	0.269499	2.179077	0.023263	-0.000200	-0.008816	1.000000	0.000291	-0.000003	-0.000110	0.164244	0.152447	0.974569	-0.740100	0.672212	0.019579	-0.652132	-0.724494	0.223232
11446		9.738337	0.293236	2.173485	0.009157	0.003690	-0.008618	1.000000	0.000114	0.000046	-0.000108	0.164527	0.152303	0.974543	-0.740051	0.672256	0.019878	-0.652116	-0.724483	0.223317
11447		9.738284	0.295434	2.173426	0.002905	-0.003805	-0.006744	1.000000	0.000036	-0.000048	-0.000084	0.164594	0.152091	0.974565	-0.740027	0.672278	0.020067	-0.652126	-0.724507	0.223204
11448		9.730122	0.269761	2.202027	0.000951	-0.002896	-0.011212	1.000000	0.000012	-0.000036	-0.000140	0.164755	0.151824	0.974580	-0.739990	0.672310	0.020362	-0.652128	-0.724534	0.223114
11449		9.745489	0.257299	2.200594	0.006089	-0.002405	-0.012666	1.000000	0.000076	-0.000030	-0.000158	0.164981	0.151520	0.974589	-0.739941	0.672352	0.020728	-0.652126	-0.724558	0.223041
11450		9.732745	0.271787	2.213890	0.006993	-0.000185	-0.010411	1.000000	0.000087	-0.000002	-0.000130	0.165249	0.151272	0.974582	-0.739866	0.672424	0.021079	-0.652144	-0.724543	0.223038
11451		9.736037	0.297406	2.190983	0.003684	-0.000699	-0.010349	1.000000	0.000046	-0.000009	-0.000129	0.165474	0.151036	0.974580	-0.739797	0.672491	0.021391	-0.652165	-0.724531	0.223016
11452		9.724520	0.307885	2.188362	0.006379	0.001882	-0.013432	1.000000	0.000080	0.000024	-0.000168	0.165853	0.150761	0.974558	-0.739658	0.672629	0.021823	-0.652226	-0.724459	0.223069
11453		9.745785	0.362925	2.201254	0.015638	0.001803	-0.012942	1.000000	0.000195	0.000023	-0.000162	0.166203	0.150503	0.974539	-0.739707	0.672560	0.022287	-0.652081	-0.724577	0.223110
11454		9.776189	0.400567	2.236069	0.006739	-0.001038	-0.007366	1.000000	0.000084	-0.000013	-0.000092	0.166346	0.150323	0.974542	-0.739730	0.672527	0.022528	-0.652019	-0.724645	0.223071
11455		9.746085	0.340517	2.266149	-0.033781	-0.000241	-0.013090	1.000000	-0.000422	-0.000003	-0.000164	0.166605	0.150064	0.974538	-0.739085	0.673230	0.022685	-0.652684	-0.724046	0.223073
11456		9.720444	0.247143	2.188922	-0.013666	0.004254	-0.010980	1.000000	-0.000171	0.000053	-0.000137	0.166950	0.149890	0.974505	-0.738691	0.673654	0.022935	-0.653042	-0.723687	0.223188
11457		9.702126	0.330685	2.168975	0.005912	0.007416	-0.006722	1.000000	0.000074	0.000093	-0.000084	0.167238	0.149863	0.974460	-0.738668	0.673671	0.023167	-0.652994	-0.723677	0.223362
11458		9.762634	0.414627	2.207005	-0.002361	-0.001045	-0.002444	1.000000	-0.000030	-0.000013	-0.000031	0.167295	0.149762	0.974466	-0.738569	0.673777	0.023247	-0.653092	-0.723599	0.223329
11459		9.798798	0.358675	2.218102	-0.033023	-0.000029	-0.013450	1.000000	-0.000413	-0.000000	-0.000168	0.167615	0.149465	0.974457	-0.737824	0.674586	0.023442	-0.653851	-0.722907	0.223349
11460		9.729308	0.271126	2.268969	-0.010483	-0.001960	-0.013577	1.000000	-0.000131	-0.000025	-0.000170	0.167866	0.149150	0.974462	-0.737544	0.674881	0.023756	-0.654103	-0.722696	0.223294
11461		9.745906	0.201684	2.183178	-0.028956	0.003331	-0.011137	1.000000	-0.000362	0.000042	-0.000139	0.168112	0.149005	0.974441	-0.737045	0.675421	0.023875	-0.654601	-0.722221	0.223370
11462		9.721466	0.227653	2.071740	0.009681	0.007407	-0.002049	1.000000	0.000121	0.000093	-0.000026	0.168293	0.149067	0.974401	-0.737136	0.675318	0.024001	-0.654452	-0.722305	0.223534
11463		9.656211	0.334489	2.135065	0.023449	0.001750	-0.008238	1.000000	0.000293	0.000022	-0.000103	0.168490	0.148928	0.974388	-0.737438	0.674975	0.024352	-0.654061	-0.722654	0.223552
11464		9.714872	0.332418	2.188079	0.005813	0.000045	-0.016821	1.000000	0.000073	0.000001	-0.000210	0.168820	0.148608	0.974380	-0.737426	0.674972	0.024823	-0.653990	-0.722723	0.223536
11465		9.799964	0.273629	2.187323	0.008646	0.000828	-0.015630	1.000000	0.000108	0.000010	-0.000195	0.169217	0.148276	0.974361	-0.737334	0.675053	0.025325	-0.653991	-0.722715	0.223560
11466		9.796631	0.302358	2.233540	0.024110	0.002207	-0.004525	1.000000	0.000301	0.000028	-0.000057	0.169394	0.148176	0.974346	-0.737590	0.674762	0.025617	-0.653656	-0.723007	0.223593
11467		9.752950	0.298260	2.225520	-0.000650	-0.001360	-0.005303	1.000000	-0.000008	-0.000017	-0.000066	0.169500	0.148023	0.974351	-0.737491	0.674865	0.025770	-0.653741	-0.722943	0.223555
11468		9.689358	0.296420	2.133699	0.018956	0.002623	-0.001486	1.000000	0.000237	0.000033	-0.000019	0.169646	0.147973	0.974333	-0.737652	0.674682	0.025972	-0.653521	-0.723124	0.223609
11469		9.661223	0.372242	2.171292	0.033637	-0.000542	0.006101	1.000000	0.000420	-0.000007	0.000076	0.169572	0.148011	0.974340	-0.738126	0.674159	0.026051	-0.653004	-0.723604	0.223569
11470		9.729809	0.390501	2.177332	0.003062	-0.006779	0.001925	1.000000	0.000038	-0.000085	0.000024	0.169456	0.147879	0.974380	-0.738124	0.674162	0.026052	-0.653038	-0.723628	0.223394
11471		9.805540	0.378608	2.178822	0.013901	-0.007719	0.004072	1.000000	0.000174	-0.000096	0.000051	0.169355	0.147721	0.974421	-0.738178	0.674101	0.026103	-0.653002	-0.723717	0.223207
11472		9.787589	0.357410	2.233049	0.015867	-0.005725	0.005287	1.000000	0.000198	-0.000072	0.000066	0.169221	0.147650	0.974455	-0.738371	0.673889	0.026115	-0.652819	-0.723929	0.223057
11473		9.722707	0.360080	2.202548	0.000427	0.001045	0.013882	1.000000	0.000005	0.000013	0.000174	0.169004	0.147866	0.974460	-0.738406	0.673863	0.025811	-0.652836	-0.723909	0.223071
11474		9.712957	0.355706	2.137749	-0.014017	-0.001903	0.014155	1.000000	-0.000175	-0.000024	0.000177	0.168761	0.148018	0.974480	-0.738157	0.674149	0.025435	-0.653180	-0.723611	0.223030
11475		9.735189	0.324728	2.145301	0.003017	-0.007839	0.008353	1.000000	0.000038	-0.000098	0.000104	0.168541	0.147958	0.974527	-0.738125	0.674190	0.025297	-0.653273	-0.723586	0.222840
11476		9.755263	0.334797	2.195153	-0.001594	-0.004648	-0.001127	1.000000	-0.000020	-0.000058	-0.000014	0.168489	0.147831	0.974555	-0.738104	0.674211	0.025338	-0.653310	-0.723592	0.222712
11477		9.741162	0.364113	2.191301	-0.000715	-0.006772	-0.002739	1.000000	-0.000009	-0.000085	-0.000034	0.168422	0.147643	0.974595	-0.738091	0.674222	0.025413	-0.653342	-0.723620	0.222528
11478		9.748268	0.334174	2.186751	-0.006627	-0.000124	0.001715	1.000000	-0.000083	-0.000002	0.000021	0.168432	0.147619	0.974597	-0.737904	0.674428	0.025373	-0.653550	-0.723433	0.222524
11479		9.755448	0.299306	2.136930	-0.019614	-0.004241	0.002178	1.000000	-0.000245	-0.000053	0.000027	0.168305	0.147565	0.974627	-0.737618	0.674747	0.025216	-0.653906	-0.723147	0.222410
11480		9.734776	0.277838	2.133927	0.003226	-0.000160	0.002416	1.000000	0.000040	-0.000002	0.000030	0.168307	0.147546	0.974630	-0.737584	0.674784	0.025218	-0.653944	-0.723116	0.222398
11481		9.757981	0.359830	2.185433	0.019673	-0.000870	0.001849	1.000000	0.000246	-0.000011	0.000023	0.168304	0.147509	0.974636	-0.737825	0.674517	0.025324	-0.653673	-0.723373	0.222360
11482		9.751406	0.376686	2.221269	-0.003413	-0.001733	-0.002989	1.000000	-0.000043	-0.000022	-0.000037	0.168386	0.147372	0.974642	-0.737680	0.674671	0.025432	-0.653815	-0.723257	0.222319
