// Start Time: Unknown
// Update Rate: 40.0Hz
// Filter Profile: human (46.1)
// Firmware Version: 4.3.4
PacketCounter	SampleTimeFine	Acc_X	Acc_Y	Acc_Z	Gyr_X	Gyr_Y	Gyr_Z	OriInc_q0	OriInc_q1	OriInc_q2	OriInc_q3	Mat[1][1]	Mat[2][1]	Mat[3][1]	Mat[1][2]	Mat[2][2]	Mat[3][2]	Mat[1][3]	Mat[2][3]	Mat[3][3]
10839		9.700512	-0.468185	1.727579	-0.575608	0.364875	0.162204	0.999962	-0.007195	0.004561	0.002028	-0.084380	-0.155139	0.984282	0.732696	-0.679118	-0.044228	0.675305	0.717447	0.170974
10840		10.085542	-1.121784	1.062343	-0.834971	0.321573	-0.005788	0.999937	-0.010437	0.004020	-0.000072	-0.089973	-0.160745	0.982887	0.718435	-0.693955	-0.047727	0.689751	0.701846	0.177922
10841		9.952109	-2.050434	0.623017	-0.676852	0.309406	-0.066835	0.999956	-0.008461	0.003868	-0.000835	-0.095738	-0.161968	0.982141	0.704579	-0.707996	-0.048076	0.703138	0.687393	0.181901
10842		9.899131	-1.361891	1.269855	-0.397301	0.322317	-0.088346	0.999979	-0.004966	0.004029	-0.001104	-0.097405	-0.166168	0.981275	0.695789	-0.716344	-0.052239	0.711611	0.677672	0.185393
10843		10.200788	-1.640167	1.210452	-0.414960	0.298845	-0.169938	0.999977	-0.005187	0.003736	-0.002124	-0.099451	-0.171249	0.980195	0.686940	-0.724485	-0.056877	0.719877	0.667679	0.189689
10844		9.893390	-1.967008	0.400193	-0.318886	0.277068	-0.248528	0.999981	-0.003986	0.003463	-0.003107	-0.101347	-0.174230	0.979476	0.677543	-0.733009	-0.060283	0.728467	0.657527	0.192337
10845		9.265761	-1.641259	0.189826	-0.269977	0.224225	-0.295430	0.999984	-0.003375	0.002803	-0.003693	-0.099462	-0.174252	0.979665	0.669930	-0.739699	-0.063554	0.735732	0.649986	0.190309
10846		9.438302	-2.195527	0.148295	-0.141698	0.176850	-0.318673	0.999988	-0.001771	0.002211	-0.003983	-0.095104	-0.169477	0.980935	0.666569	-0.742717	-0.063694	0.739352	0.647803	0.183604
10847		9.450817	-2.021701	0.418430	-0.037353	0.141391	-0.338584	0.999989	-0.000467	0.001767	-0.004232	-0.088363	-0.165626	0.982222	0.663622	-0.745156	-0.065950	0.742831	0.645996	0.175757
10848		9.333896	-2.067395	0.775370	0.047938	0.116880	-0.372397	0.999988	0.000599	0.001461	-0.004655	-0.084126	-0.162156	0.983173	0.661240	-0.747207	-0.066659	0.745443	0.644505	0.170083
10849		9.182076	-2.227073	0.415541	0.138521	0.103785	-0.410208	0.999985	0.001731	0.001297	-0.005128	-0.078055	-0.165256	0.983157	0.652067	-0.754439	-0.075042	0.754133	0.635227	0.166646
10850		9.546058	-2.397177	0.222283	0.264218	0.104073	-0.426919	0.999979	0.003303	0.001301	-0.005336	-0.067368	-0.166042	0.983815	0.645580	-0.759070	-0.083904	0.760715	0.629479	0.158330
10851		9.593464	-1.245197	0.526342	0.391257	0.145455	-0.454231	0.999970	0.004891	0.001818	-0.005678	-0.067366	-0.155433	0.985547	0.654073	-0.752801	-0.074018	0.753426	0.639633	0.152378
10852		10.048629	-0.533585	1.280999	0.200657	0.186755	-0.511955	0.999974	0.002508	0.002334	-0.006399	-0.067938	-0.149530	0.986420	0.654094	-0.753248	-0.069135	0.753357	0.640514	0.148981
10853		10.622255	-1.393329	1.056347	0.071567	0.258831	-0.565752	0.999969	0.000895	0.003235	-0.007072	-0.067702	-0.138405	0.988059	0.663442	-0.745896	-0.059024	0.745159	0.651523	0.142322
10854		10.330209	-1.228246	0.690026	0.049955	0.414376	-0.583925	0.999960	0.000624	0.005180	-0.007299	-0.072208	-0.127727	0.989177	0.679369	-0.732416	-0.044980	0.730235	0.668769	0.139660
10855		9.674117	-1.029528	-0.081055	-0.010639	0.491289	-0.615803	0.999952	-0.000133	0.006141	-0.007697	-0.086860	-0.127638	0.988010	0.675924	-0.736108	-0.035672	0.731835	0.664721	0.150212
10856		9.177687	-1.307204	-0.222351	0.158221	0.494824	-0.651948	0.999946	0.001978	0.006185	-0.008149	-0.096168	-0.127796	0.987127	0.670875	-0.740940	-0.030566	0.735308	0.659300	0.156989
10857		8.414428	-1.629152	0.224001	0.376607	0.511241	-0.675593	0.999933	0.004707	0.006390	-0.008445	-0.112223	-0.124609	0.985839	0.672039	-0.740319	-0.017074	0.731963	0.660606	0.166823
10858		8.497958	-2.611807	0.519436	0.841336	0.486983	-0.540523	0.999903	0.010516	0.006087	-0.006756	-0.122224	-0.124452	0.984669	0.676642	-0.736256	-0.009065	0.726097	0.665160	0.174198
10859		10.203784	-2.556111	1.295873	1.229157	0.163904	-0.238280	0.999875	0.015364	0.002049	-0.002978	-0.122766	-0.124019	0.984656	0.690096	-0.723700	-0.005110	0.713229	0.678880	0.174431
10860		10.566432	-2.208409	4.964411	1.311692	0.104490	0.073327	0.999864	0.016395	0.001306	0.000917	-0.116574	-0.126456	0.985099	0.708939	-0.705238	-0.006636	0.695568	0.697602	0.171862
10861		10.287964	-1.899781	5.548591	1.010639	0.019611	0.462171	0.999903	0.012633	0.000245	0.005777	-0.100260	-0.135489	0.985693	0.724331	-0.689131	-0.021049	0.682123	0.711858	0.167231
10862		10.529625	-0.105150	3.004186	0.106635	-0.352858	0.791831	0.999940	0.001333	-0.004411	0.009898	-0.075253	-0.146235	0.986383	0.726731	-0.685369	-0.046165	0.682787	0.713362	0.157849
10863		10.567054	0.681482	0.908485	-0.917732	-0.633395	0.816080	0.999851	-0.011471	-0.007917	0.010200	-0.042735	-0.151052	0.987602	0.714158	-0.695897	-0.075533	0.698679	0.702076	0.137614
10864		7.955527	-0.241949	-2.432519	-1.350231	-1.201116	0.200468	0.999742	-0.016876	-0.015013	0.002506	-0.012307	-0.135423	0.990711	0.692430	-0.715942	-0.089263	0.721381	0.684899	0.102582
10865		9.258349	-2.161837	-0.399605	0.746148	-0.958697	-0.371543	0.999874	0.009326	-0.011983	-0.004644	0.006280	-0.111791	0.993712	0.719201	-0.689927	-0.082161	0.694774	0.715194	0.076068
10866		9.450325	1.333876	4.042091	2.246962	-0.651950	-0.283392	0.999566	0.028083	-0.008148	-0.003542	0.019385	-0.096441	0.995150	0.767902	-0.635972	-0.076591	0.640274	0.765662	0.061729
10867		8.973856	2.201473	3.478620	1.759254	-0.558065	-0.082130	0.999733	0.021989	-0.006975	-0.001027	0.028138	-0.087808	0.995740	0.796400	-0.600049	-0.075419	0.604116	0.795129	0.053046
10868		8.593426	3.816274	3.289852	1.427200	-0.932322	0.025341	0.999773	0.017839	-0.011653	0.000317	0.043232	-0.070614	0.996566	0.827582	-0.556269	-0.075317	0.559678	0.827996	0.034390
10869		9.945723	2.925363	2.628201	0.216661	-1.141913	-0.246575	0.999890	0.002708	-0.014273	-0.003082	0.053538	-0.045951	0.997508	0.838829	-0.539890	-0.069892	0.541756	0.840480	0.009640
10870		10.968175	1.576739	2.606076	-0.175283	-0.996525	-0.337561	0.999911	-0.002191	-0.012456	-0.004219	0.056538	-0.022517	0.998147	0.842385	-0.535548	-0.059796	0.535902	0.844205	-0.011310
10871		10.736292	0.382139	3.194596	-0.478631	-0.383449	-0.171007	0.999968	-0.005983	-0.004793	-0.002138	0.053512	-0.014180	0.998467	0.837452	-0.543974	-0.052608	0.543885	0.838982	-0.017234
10872		10.134665	-2.555100	2.966426	-0.206855	-0.346672	-0.153173	0.999985	-0.002586	-0.004333	-0.001915	0.050293	-0.007162	0.998709	0.837647	-0.544264	-0.046085	0.543892	0.838883	-0.021374
10873		9.618868	-1.689431	1.298386	-0.081330	-0.396321	-0.173300	0.999985	-0.001017	-0.004954	-0.002166	0.047803	0.000070	0.998857	0.838008	-0.544185	-0.040067	0.543560	0.838965	-0.026073
10874		9.758032	0.592477	1.731611	0.111477	-0.273246	-0.197130	0.999990	0.001393	-0.003416	-0.002464	0.043635	0.004978	0.999035	0.839975	-0.541559	-0.033989	0.540867	0.840648	-0.027812
10875		9.598181	0.614932	2.784642	0.223392	-0.116834	-0.329220	0.999987	0.002792	-0.001460	-0.004115	0.034496	0.008515	0.999369	0.843625	-0.536372	-0.024551	0.535824	0.843939	-0.025686
10876		9.656562	-0.903844	0.963557	0.121285	-0.062726	-0.300311	0.999991	0.001516	-0.000784	-0.003754	0.025031	0.010293	0.999634	0.846030	-0.532903	-0.015697	0.532547	0.846113	-0.022048
10877		10.854111	1.573326	2.842323	-0.069466	0.166096	-0.215099	0.999994	-0.000868	0.002076	-0.002689	0.014752	0.006195	0.999872	0.845822	-0.533387	-0.009175	0.533262	0.845849	-0.013108
10878		9.634109	0.876771	1.369781	-0.556401	-0.018257	-0.277537	0.999970	-0.006955	-0.000228	-0.003469	0.005366	0.006841	0.999962	0.838914	-0.544264	-0.000778	0.544238	0.838886	-0.008660
10879		9.455808	-0.212079	0.580324	-0.345886	-0.089997	-0.288262	0.999984	-0.004324	-0.001125	-0.003603	-0.003110	0.009404	0.999951	0.834060	-0.551619	0.007781	0.551665	0.834043	-0.006128
10880		8.556926	-0.782760	-0.084938	0.010767	-0.125860	-0.332847	0.999990	0.000135	-0.001573	-0.004161	-0.011640	0.013633	0.999839	0.834476	-0.550775	0.017225	0.550922	0.834542	-0.004965
10881		10.106587	-0.370489	0.316378	0.457073	-0.179984	-0.350478	0.999972	0.005713	-0.002250	-0.004381	-0.018504	0.020195	0.999625	0.818954	-0.573236	0.026740	0.573561	0.819141	-0.005932
10882		10.298890	0.315775	1.016121	0.582882	-0.256423	-0.319830	0.999960	0.007286	-0.003205	-0.003998	-0.023223	0.028233	0.999332	0.810575	-0.584566	0.035352	0.585174	0.810855	-0.009310
10883		9.967695	1.137405	0.925275	0.474775	-0.242854	-0.334194	0.999969	0.005935	-0.003036	-0.004177	-0.028317	0.036316	0.998939	0.803359	-0.593841	0.044362	0.594822	0.803763	-0.012359
10884		9.943799	1.106382	0.670904	0.217518	-0.100289	-0.298586	0.999989	0.002719	-0.001254	-0.003732	-0.034521	0.041381	0.998547	0.794578	-0.604884	0.052536	0.606179	0.795237	-0.011999
10885		9.937530	0.318166	-0.329519	0.255901	-0.092662	-0.177609	0.999992	0.003199	-0.001158	-0.002220	-0.038445	0.044640	0.998263	0.789139	-0.611495	0.057736	0.613010	0.789988	-0.011718
10886		9.675825	0.399344	0.213178	0.374874	-0.076288	-0.125735	0.999987	0.004686	-0.000954	-0.001572	-0.041546	0.046879	0.998036	0.788089	-0.612474	0.061575	0.614158	0.789100	-0.011499
10887		9.482752	1.183393	0.702283	0.211466	-0.046274	-0.078603	0.999996	0.002643	-0.000578	-0.000983	-0.043831	0.048025	0.997884	0.784142	-0.617257	0.064149	0.619031	0.785295	-0.010603
10888		9.296792	1.382683	0.320267	-0.071151	-0.060569	-0.041441	0.999999	-0.000889	-0.000757	-0.000518	-0.045286	0.048853	0.997779	0.778312	-0.624411	0.065897	0.626243	0.779567	-0.009746
10889		9.540844	0.781213	-0.597781	-0.168848	-0.004706	-0.026802	0.999998	-0.002111	-0.000059	-0.000335	-0.047224	0.048518	0.997705	0.771745	-0.632363	0.067281	0.634176	0.773152	-0.007581
10890		9.810206	-0.053843	-0.136549	0.043386	0.001962	-0.019999	1.000000	0.000542	0.000025	-0.000250	-0.049099	0.048153	0.997633	0.767716	-0.637115	0.068535	0.638907	0.769263	-0.005686
10891		9.596487	-0.011118	-0.159951	0.081912	-0.020747	-0.017810	0.999999	0.001024	-0.000259	-0.000223	-0.050255	0.048233	0.997571	0.765097	-0.640153	0.069495	0.641950	0.766732	-0.004732
10892		9.670867	0.118944	0.041330	0.220877	-0.022268	-0.012843	0.999996	0.002761	-0.000278	-0.000161	-0.051252	0.048208	0.997522	0.765749	-0.639292	0.070240	0.641094	0.767451	-0.004150
10893		9.889927	0.438554	0.011373	0.379233	-0.014723	0.033144	0.999989	0.004740	-0.000184	0.000414	-0.051411	0.047347	0.997555	0.768970	-0.635464	0.069791	0.637215	0.770677	-0.003738
10894		9.436586	0.682235	-0.022871	0.192649	-0.016762	0.027208	0.999997	0.002408	-0.000210	0.000340	-0.051375	0.046767	0.997584	0.768700	-0.635833	0.069395	0.637542	0.770408	-0.003284
10895		9.482844	0.084104	0.016459	0.100230	-0.000013	0.007036	0.999999	0.001253	-0.000000	0.000088	-0.051986	0.046157	0.997581	0.768053	-0.636606	0.069480	0.638273	0.769807	-0.002357
10896		9.781947	-0.137170	0.010969	0.192726	-0.021019	0.032547	0.999997	0.002409	-0.000263	0.000407	-0.051794	0.045340	0.997628	0.771132	-0.632947	0.068801	0.634565	0.772867	-0.002180
10897		9.568415	0.007254	-0.228267	0.169289	-0.003135	0.044134	0.999998	0.002116	-0.000039	0.000552	-0.051448	0.044203	0.997697	0.771909	-0.632106	0.067811	0.633648	0.773620	-0.001600
10898		9.686315	-0.073480	-0.312866	0.167421	0.048259	0.059281	0.999997	0.002093	0.000603	0.000741	-0.051703	0.041701	0.997791	0.774186	-0.629463	0.066423	0.630843	0.775911	0.000261
10899		9.415525	0.788244	-0.066817	0.277586	0.087639	0.095696	0.999993	0.003470	0.001095	0.001196	-0.051456	0.038115	0.997948	0.776415	-0.626966	0.063979	0.628118	0.778114	0.002668
10900		9.035982	1.170590	-0.273119	0.042153	0.056245	0.004348	1.000000	0.000527	0.000703	0.000054	-0.052558	0.036496	0.997951	0.776208	-0.627238	0.063819	0.628282	0.777972	0.004638
10901		9.409240	0.118086	-0.000487	0.035635	0.064260	-0.065730	0.999999	0.000445	0.000803	-0.000822	-0.055097	0.036027	0.997831	0.775037	-0.628513	0.065488	0.629509	0.776964	0.006707
10902		10.071601	-0.500524	-0.820467	0.110967	0.042600	0.011931	0.999999	0.001387	0.000533	0.000149	-0.055992	0.034366	0.997840	0.778094	-0.624758	0.065178	0.625648	0.780062	0.008241
10903		9.368973	-0.117310	-0.294518	0.153089	0.011753	0.056479	0.999998	0.001914	0.000147	0.000706	-0.055224	0.032990	0.997929	0.779283	-0.623423	0.063734	0.624235	0.781188	0.008719
10904		9.685209	-0.093214	-0.349847	0.090442	0.012209	0.032433	0.999999	0.001131	0.000153	0.000405	-0.054738	0.032128	0.997984	0.778696	-0.624250	0.062806	0.625010	0.780563	0.009152
10905		9.852277	-0.034376	-0.131754	0.155280	0.087370	0.046877	0.999997	0.001941	0.001092	0.000586	-0.055227	0.029171	0.998048	0.782075	-0.620152	0.061402	0.620732	0.783939	0.011435
10906		9.298991	0.069909	0.071338	0.145156	0.063460	0.018213	0.999998	0.001814	0.000793	0.000228	-0.055693	0.027433	0.998071	0.783286	-0.618689	0.060713	0.619161	0.785157	0.012969
10907		9.632042	-0.221098	-0.298803	0.076193	0.017442	-0.019677	0.999999	0.000952	0.000218	-0.000246	-0.056118	0.027320	0.998050	0.782584	-0.619553	0.060962	0.620010	0.784480	0.013388
10908		9.921726	-0.640486	0.061428	0.250258	0.032691	-0.007781	0.999995	0.003128	0.000409	-0.000097	-0.056524	0.026530	0.998049	0.785889	-0.615364	0.060866	0.615779	0.787796	0.013933
10909		9.771947	-0.780748	0.489401	0.331109	0.055213	-0.031589	0.999991	0.004139	0.000690	-0.000395	-0.057679	0.025817	0.998001	0.789461	-0.610720	0.061425	0.611085	0.791426	0.014845
10910		9.960423	-0.469490	0.340565	0.367031	0.101617	-0.036176	0.999989	0.004588	0.001270	-0.000452	-0.059834	0.023886	0.997922	0.795220	-0.603131	0.062117	0.603362	0.797284	0.017093
10911		9.807576	-0.403404	0.283408	0.256251	0.166877	-0.008369	0.999993	0.003203	0.002086	-0.000105	-0.062238	0.020315	0.997855	0.798598	-0.598663	0.061998	0.598638	0.800743	0.021036
10912		9.560243	-0.389446	0.058877	0.203555	0.175663	-0.014458	0.999994	0.002544	0.002196	-0.000181	-0.064778	0.016536	0.997763	0.801502	-0.594780	0.061893	0.594473	0.803718	0.025275
10913		9.790047	-0.717853	0.117716	0.240305	0.205802	0.034474	0.999992	0.003004	0.002573	0.000431	-0.066662	0.011817	0.997706	0.803244	-0.592551	0.060687	0.591908	0.805447	0.030009
10914		9.672731	0.192903	0.508893	0.293301	0.170907	0.037022	0.999991	0.003666	0.002136	0.000463	-0.068027	0.007379	0.997656	0.807522	-0.586838	0.059403	0.585901	0.809671	0.033962
10915		9.191828	1.571609	0.650563	0.136117	0.165453	-0.030419	0.999996	0.001701	0.002068	-0.000380	-0.070403	0.004245	0.997510	0.808342	-0.585694	0.059544	0.584488	0.810521	0.037803
10916		9.650809	0.469565	0.152145	0.021262	0.091090	-0.054370	0.999999	0.000266	0.001139	-0.000680	-0.072429	0.002821	0.997370	0.808397	-0.585535	0.060362	0.584165	0.810642	0.040129
10917		9.644272	0.399710	0.483679	-0.011849	0.124194	-0.010221	0.999999	-0.000148	0.001552	-0.000128	-0.073823	0.000328	0.997271	0.807121	-0.587336	0.059941	0.585753	0.809343	0.043095
10918		9.173348	1.537203	0.533941	-0.310164	0.110690	-0.011675	0.999992	-0.003877	0.001384	-0.000146	-0.074979	-0.001815	0.997183	0.801318	-0.595306	0.059168	0.593522	0.803497	0.046090
10919		9.253641	0.574049	0.289088	-0.548996	0.003781	-0.001827	0.999976	-0.006862	0.000047	-0.000023	-0.074379	-0.002036	0.997228	0.792333	-0.607340	0.057857	0.605538	0.794440	0.046786
10920		9.836219	-0.641361	0.579542	-0.395719	0.007475	-0.032456	0.999988	-0.004946	0.000093	-0.000406	-0.074623	-0.001829	0.997210	0.785600	-0.616042	0.057658	0.614218	0.787711	0.047408
10921		10.066228	-0.640390	0.411530	-0.055530	0.040497	-0.038292	1.000000	-0.000694	0.000506	-0.000479	-0.075675	-0.002361	0.997130	0.784496	-0.617409	0.058076	0.615500	0.786639	0.048574
10922		9.686197	0.937548	0.449760	0.083706	0.055351	-0.064289	0.999999	0.001046	0.000692	-0.000804	-0.077534	-0.002850	0.996986	0.785690	-0.615767	0.059342	0.613742	0.787923	0.049982
10923		9.663657	1.117150	0.437703	-0.065708	0.031219	-0.077298	0.999999	-0.000821	0.000390	-0.000966	-0.078968	-0.002365	0.996874	0.783738	-0.618126	0.060617	0.616051	0.786075	0.050666
10924		9.626769	0.145530	0.828617	-0.227575	0.016901	-0.062562	0.999996	-0.002845	0.000211	-0.000782	-0.080033	-0.001848	0.996790	0.779600	-0.623256	0.061440	0.621143	0.782015	0.051322
10925		9.823527	-0.633611	0.415563	-0.115871	-0.008748	-0.006910	0.999999	-0.001448	-0.000109	-0.000086	-0.079719	-0.001623	0.996816	0.777349	-0.626090	0.061148	0.623998	0.779749	0.051173
10926		10.015421	0.306254	0.662142	-0.090500	0.038007	0.049626	0.999999	-0.001131	0.000475	0.000620	-0.078769	-0.003213	0.996888	0.775234	-0.628891	0.059228	0.626744	0.777487	0.052028
10927		9.269694	1.090985	0.303076	-0.273997	-0.008617	0.034588	0.999994	-0.003425	-0.000108	0.000432	-0.077512	-0.003715	0.996985	0.770246	-0.635148	0.057517	0.633019	0.772382	0.052093
10928		9.254509	0.397630	0.193503	-0.299909	-0.084242	-0.021484	0.999992	-0.003749	-0.001053	-0.000269	-0.075904	-0.001851	0.997113	0.764150	-0.642518	0.056977	0.640558	0.766269	0.050184
10929		9.486061	-0.040817	0.031132	-0.229111	-0.046689	-0.077100	0.999995	-0.002864	-0.000584	-0.000964	-0.076366	0.000070	0.997080	0.760253	-0.647009	0.058273	0.645123	0.762483	0.049357
10930		9.683633	0.147197	0.255329	-0.069452	0.012020	-0.071441	0.999999	-0.000868	0.000150	-0.000893	-0.077460	0.000994	0.996995	0.758375	-0.649091	0.059567	0.647200	0.760710	0.049525
10931		9.428638	1.010209	0.457271	-0.211837	-0.005756	-0.076119	0.999996	-0.002648	-0.000072	-0.000951	-0.078618	0.002085	0.996903	0.755142	-0.652724	0.060918	0.650830	0.757593	0.049741
10932		9.323980	0.355333	0.139221	-0.362081	-0.083593	-0.087477	0.999989	-0.004526	-0.001045	-0.001093	-0.078600	0.005041	0.996893	0.748920	-0.659718	0.062385	0.657983	0.751496	0.048078
10933		9.386924	-0.142666	-0.135563	-0.217500	-0.146507	-0.128848	0.999993	-0.002719	-0.001831	-0.001611	-0.078434	0.009668	0.996872	0.745313	-0.663531	0.065077	0.662085	0.748086	0.044838
10934		9.429049	-0.169212	-0.159220	-0.031495	-0.203729	-0.211038	0.999993	-0.000394	-0.002547	-0.002638	-0.078491	0.016966	0.996770	0.743782	-0.664759	0.069884	0.663797	0.746866	0.039559
10935		9.501373	-0.193598	0.294922	0.190597	-0.195362	-0.268437	0.999989	0.002382	-0.002442	-0.003355	-0.079853	0.025035	0.996492	0.746144	-0.661386	0.076408	0.660979	0.749628	0.034134
10936		10.055458	0.547201	0.497202	0.171060	-0.122867	-0.278675	0.999990	0.002138	-0.001536	-0.003483	-0.082495	0.031704	0.996087	0.747930	-0.658580	0.082905	0.658631	0.751843	0.030618
10937		9.762021	0.612405	0.326005	0.045650	-0.023830	-0.239288	0.999995	0.000571	-0.000298	-0.002991	-0.086153	0.035965	0.995633	0.747873	-0.657919	0.088480	0.658228	0.752229	0.029784
10938		9.744715	0.794577	0.294422	-0.078844	-0.006023	-0.215460	0.999996	-0.000986	-0.000075	-0.002693	-0.089623	0.039496	0.995192	0.745746	-0.659659	0.093339	0.660174	0.750526	0.029666
10939		9.504887	0.531516	0.193144	-0.088991	-0.025381	-0.159365	0.999997	-0.001112	-0.000317	-0.001992	-0.091351	0.042783	0.994899	0.742844	-0.662445	0.096694	0.663202	0.747888	0.028734
10940		9.590123	0.757733	0.031466	-0.067039	-0.046194	-0.135017	0.999998	-0.000838	-0.000577	-0.001688	-0.092769	0.045805	0.994634	0.741527	-0.663472	0.099716	0.664479	0.746798	0.027584
10941		9.613435	0.881989	-0.100407	-0.127000	0.048414	-0.126464	0.999997	-0.001587	0.000605	-0.001581	-0.095223	0.047033	0.994344	0.738150	-0.666845	0.102231	0.667882	0.743710	0.028781
10942		9.585727	0.535030	0.181841	0.004777	0.125492	-0.119443	0.999998	0.000060	0.001569	-0.001493	-0.098780	0.046779	0.994009	0.737096	-0.667633	0.104669	0.668530	0.743019	0.031468
10943		9.904841	0.529425	0.325659	0.073367	0.064403	-0.093163	0.999999	0.000917	0.000805	-0.001165	-0.101110	0.047180	0.993756	0.737814	-0.666515	0.106713	0.667388	0.743997	0.032581
10944		9.695132	0.732884	0.199655	0.071920	-0.007861	-0.046174	0.999999	0.000899	-0.000098	-0.000577	-0.101058	0.048159	0.993714	0.737832	-0.666396	0.107332	0.667376	0.744041	0.031811
10945		9.638916	1.208072	0.074103	-0.007107	-0.016371	-0.051451	1.000000	-0.000089	-0.000205	-0.000643	-0.101096	0.049184	0.993660	0.736860	-0.667363	0.108002	0.668444	0.743107	0.031226
10946		9.434054	1.301246	0.018079	-0.059608	0.047890	-0.076276	0.999999	-0.000745	0.000599	-0.000953	-0.102774	0.049702	0.993462	0.735222	-0.668919	0.109524	0.669990	0.741671	0.032205
10947		9.695073	1.050170	0.247752	-0.024109	-0.011322	-0.039939	1.000000	-0.000301	-0.000142	-0.000499	-0.103105	0.050518	0.993387	0.735062	-0.668966	0.110313	0.670115	0.741574	0.031839
10948		9.616071	0.827514	0.051528	-0.029115	-0.031794	0.012709	1.000000	-0.000364	-0.000397	0.000159	-0.101626	0.050986	0.993515	0.733816	-0.670470	0.109469	0.671704	0.740182	0.030723
10949		9.455170	0.653875	0.107532	-0.057936	-0.004928	0.008937	1.000000	-0.000724	-0.000062	0.000112	-0.100741	0.051113	0.993599	0.732181	-0.672360	0.108824	0.673618	0.738458	0.030310
10950		9.529655	0.759136	0.166875	0.026071	0.010056	-0.010205	1.000000	0.000326	0.000126	-0.000128	-0.100179	0.051314	0.993645	0.731127	-0.673559	0.108496	0.674846	0.737350	0.029959
10951		9.616751	0.970644	0.110030	-0.001099	0.029349	-0.003465	1.000000	-0.000014	0.000367	-0.000043	-0.100077	0.051120	0.993666	0.729639	-0.675215	0.108222	0.676470	0.735848	0.030274
10952		9.600472	1.193996	-0.027257	-0.100912	0.046565	0.029506	0.999999	-0.001261	0.000582	0.000369	-0.099777	0.049624	0.993772	0.727795	-0.677412	0.106899	0.678497	0.733928	0.031474
10953		9.740454	1.407936	0.160721	-0.058801	-0.042062	0.062256	0.999999	-0.000735	-0.000526	0.000778	-0.097429	0.049377	0.994017	0.726653	-0.678941	0.104949	0.680061	0.732530	0.030269
10954		9.404232	1.178633	0.547443	-0.101515	0.030030	0.045092	0.999999	-0.001269	0.000375	0.000564	-0.096528	0.048120	0.994166	0.724034	-0.681984	0.103309	0.682977	0.729782	0.030989
10955		9.434509	0.822732	0.004228	-0.118485	0.007154	0.025920	0.999999	-0.001481	0.000089	0.000324	-0.095521	0.047405	0.994298	0.720731	-0.685680	0.101931	0.686602	0.726358	0.031331
10956		9.568660	0.864237	-0.046747	-0.120727	0.006725	0.039066	0.999999	-0.001509	0.000084	0.000488	-0.094149	0.047047	0.994446	0.716572	-0.690235	0.100496	0.691129	0.722054	0.031273
10957		9.547928	0.858680	0.125870	-0.088546	0.022820	0.046586	0.999999	-0.001107	0.000285	0.000582	-0.093351	0.045548	0.994591	0.715065	-0.692039	0.098808	0.692797	0.720421	0.032033
10958		9.610613	0.923421	0.113645	-0.152161	0.002714	0.045099	0.999998	-0.001902	0.000034	0.000564	-0.092130	0.044722	0.994742	0.712295	-0.695114	0.097222	0.695807	0.717507	0.032186
10959		9.558115	0.988300	0.161010	-0.173935	0.007962	0.041694	0.999997	-0.002174	0.000100	0.000521	-0.090788	0.044043	0.994896	0.707993	-0.699721	0.095583	0.700359	0.713057	0.032344
10960		9.548772	0.921594	0.189234	-0.183613	0.013102	0.032871	0.999997	-0.002295	0.000164	0.000411	-0.089956	0.043514	0.994995	0.704014	-0.703879	0.094432	0.704465	0.708985	0.032684
10961		9.601798	0.820654	0.247555	-0.155496	0.016672	0.017242	0.999998	-0.001944	0.000208	0.000216	-0.089556	0.043451	0.995034	0.700398	-0.707544	0.093935	0.708112	0.705332	0.032932
10962		9.635022	0.770788	0.151259	-0.157385	0.010173	0.001035	0.999998	-0.001967	0.000127	0.000013	-0.089226	0.043431	0.995064	0.697778	-0.710177	0.093566	0.710735	0.702683	0.033061
10963		9.508259	0.798781	0.049282	-0.137906	-0.005822	-0.005056	0.999999	-0.001724	-0.000073	-0.000063	-0.088711	0.043684	0.995099	0.695462	-0.712483	0.093277	0.713066	0.700328	0.032824
10964		9.569263	0.706892	0.081138	-0.112090	0.001534	-0.008874	0.999999	-0.001401	0.000019	-0.000111	-0.088581	0.043997	0.995097	0.693118	-0.714761	0.093302	0.715361	0.697984	0.032819
10965		9.603574	0.650122	0.104188	-0.087619	0.005338	-0.009079	0.999999	-0.001095	0.000067	-0.000113	-0.087921	0.043969	0.995157	0.690572	-0.717298	0.092704	0.717900	0.695378	0.032701
10966		9.581034	0.764092	0.141849	-0.066279	-0.004133	-0.000587	1.000000	-0.000828	-0.000052	-0.000007	-0.087550	0.044220	0.995178	0.689872	-0.717985	0.092594	0.718618	0.694652	0.032354
10967		9.605886	0.807347	0.098805	-0.075908	-0.004282	-0.000006	1.000000	-0.000949	-0.000054	-0.000000	-0.086969	0.044923	0.995198	0.687817	-0.719952	0.092606	0.720655	0.692568	0.031715
10968		9.549912	0.801540	0.175322	-0.043906	0.002698	-0.010337	1.000000	-0.000549	0.000034	-0.000129	-0.086481	0.045531	0.995213	0.685515	-0.722145	0.092607	0.722904	0.690242	0.031240
10969		9.565371	0.901563	0.099354	-0.026171	-0.002721	-0.020006	1.000000	-0.000327	-0.000034	-0.000250	-0.086061	0.046360	0.995211	0.683420	-0.724099	0.092830	0.724935	0.688136	0.030634
10970		9.581266	0.953881	0.053066	-0.037163	-0.000502	-0.023129	1.000000	-0.000465	-0.000006	-0.000289	-0.086189	0.046839	0.995177	0.683400	-0.724062	0.093266	0.724938	0.688143	0.030397
10971		9.581184	0.904924	0.107479	-0.031105	0.003055	-0.024074	1.000000	-0.000389	0.000038	-0.000301	-0.085298	0.047917	0.995203	0.679684	-0.727549	0.093285	0.728528	0.684381	0.029490
10972		9.655990	0.947226	0.187320	-0.025073	0.004772	-0.021941	1.000000	-0.000313	0.000060	-0.000274	-0.085781	0.047991	0.995158	0.681279	-0.725997	0.093736	0.726980	0.686021	0.029581
10973		9.541131	0.825013	0.255174	-0.038906	0.014527	-0.014984	1.000000	-0.000486	0.000182	-0.000187	-0.085679	0.048220	0.995155	0.680322	-0.726887	0.093794	0.727889	0.685062	0.029474
10974		9.520017	0.741944	0.104169	-0.049461	0.003665	-0.007010	1.000000	-0.000618	0.000046	-0.000088	-0.085422	0.048319	0.995173	0.679407	-0.727760	0.093653	0.728772	0.684127	0.029338
10975		9.546776	0.944920	-0.030271	-0.047113	-0.011262	-0.012132	1.000000	-0.000589	-0.000141	-0.000152	-0.085144	0.048799	0.995173	0.678654	-0.728446	0.093783	0.729506	0.683363	0.028905
10976		9.543890	1.031438	0.065808	-0.014913	0.003433	-0.019577	1.000000	-0.000186	0.000043	-0.000245	-0.085222	0.049070	0.995153	0.678730	-0.728342	0.094039	0.729427	0.683454	0.028766
10977		9.570236	0.926155	0.137808	0.007156	0.017193	-0.019971	1.000000	0.000089	0.000215	-0.000250	-0.085364	0.049223	0.995133	0.678235	-0.728779	0.094228	0.729870	0.682978	0.028827
10978		9.607623	0.909411	0.136374	0.003160	0.008951	-0.017894	1.000000	0.000039	0.000112	-0.000224	-0.085248	0.049453	0.995132	0.677901	-0.729079	0.094304	0.730193	0.682641	0.028629
10979		9.560817	1.024250	0.117327	-0.016426	0.002398	-0.021938	1.000000	-0.000205	0.000030	-0.000274	-0.085004	0.050027	0.995124	0.676582	-0.730278	0.094507	0.731445	0.681316	0.028229
10980		9.533917	0.904466	0.107807	-0.006211	0.017385	-0.023127	1.000000	-0.000078	0.000217	-0.000289	-0.084950	0.050896	0.995084	0.674535	-0.732101	0.095030	0.733339	0.679292	0.027861
10981		9.584710	0.903094	0.061150	0.000476	0.009089	-0.014801	1.000000	0.000006	0.000114	-0.000185	-0.084737	0.051143	0.995090	0.674975	-0.731689	0.095083	0.732959	0.679718	0.027481
10982		9.547218	0.953095	0.037168	-0.024607	0.009946	-0.010810	1.000000	-0.000308	0.000124	-0.000135	-0.084715	0.051037	0.995097	0.674836	-0.731829	0.094984	0.733089	0.679574	0.027555
10983		9.553463	0.869597	0.074705	-0.003637	0.018198	-0.005615	1.000000	-0.000045	0.000227	-0.000070	-0.084840	0.050759	0.995101	0.674428	-0.732223	0.094850	0.733451	0.679171	0.027888
10984		9.586200	0.915406	0.100958	-0.009507	0.009331	-0.001296	1.000000	-0.000119	0.000117	-0.000016	-0.084352	0.051134	0.995123	0.673696	-0.732908	0.094766	0.734179	0.678404	0.027373
10985		9.553041	0.875272	0.143557	-0.015264	0.014016	-0.001429	1.000000	-0.000191	0.000175	-0.000018	-0.084114	0.050302	0.995186	0.673944	-0.732778	0.094001	0.733979	0.678606	0.027736
10986		9.553994	0.906565	0.092469	-0.016863	0.009512	-0.000820	1.000000	-0.000211	0.000119	-0.000010	-0.083678	0.050459	0.995215	0.673326	-0.733372	0.093796	0.734595	0.677952	0.027392
10987		9.551674	0.986244	0.043614	-0.018617	0.009937	-0.007187	1.000000	-0.000233	0.000124	-0.000090	-0.083534	0.050616	0.995219	0.672644	-0.733999	0.093789	0.735236	0.677262	0.027268
10988		9.546164	0.963924	0.119145	-0.006050	0.016519	-0.010406	1.000000	-0.000076	0.000206	-0.000130	-0.083688	0.050563	0.995208	0.672521	-0.734104	0.093850	0.735331	0.677152	0.027431
10989		9.545206	0.956818	0.169065	0.003199	0.010705	-0.019374	1.000000	0.000040	0.000134	-0.000242	-0.083749	0.050909	0.995186	0.672226	-0.734337	0.094136	0.735594	0.676873	0.027278
10990		9.562578	0.893903	0.169701	0.003970	0.018286	-0.011896	1.000000	0.000050	0.000229	-0.000149	-0.083907	0.051025	0.995166	0.672161	-0.734372	0.094326	0.735635	0.676827	0.027322
10991		9.553911	0.965103	0.070009	-0.020133	0.006944	-0.004893	1.000000	-0.000252	0.000087	-0.000061	-0.083668	0.051193	0.995178	0.671140	-0.735315	0.094250	0.736594	0.675789	0.027164
10992		9.556021	0.978709	0.080094	-0.011508	0.017205	-0.010596	1.000000	-0.000144	0.000215	-0.000132	-0.083861	0.051363	0.995153	0.670085	-0.736248	0.094468	0.737532	0.674759	0.027325
10993		9.552688	0.942983	0.108700	0.007957	0.020418	-0.005122	1.000000	0.000099	0.000255	-0.000064	-0.083915	0.051288	0.995152	0.670111	-0.736227	0.094449	0.737502	0.674788	0.027412
10994		9.533772	0.944065	0.075891	0.017307	0.016285	0.002709	1.000000	0.000216	0.000204	0.000034	-0.083445	0.051172	0.995198	0.669613	-0.736734	0.094028	0.738008	0.674244	0.027211
10995		9.584015	1.016450	0.117290	0.003876	0.014946	0.006150	1.000000	0.000048	0.000187	0.000077	-0.083281	0.050874	0.995227	0.669366	-0.737002	0.093687	0.738250	0.673973	0.027325
10996		9.536636	0.983066	0.121762	-0.010760	0.018908	0.010860	1.000000	-0.000135	0.000236	0.000136	-0.083429	0.050813	0.995217	0.669053	-0.737281	0.093730	0.738517	0.673673	0.027515
10997		9.598864	0.976700	0.110154	-0.003467	0.017114	0.018624	1.000000	-0.000043	0.000214	0.000233	-0.082940	0.050383	0.995280	0.667770	-0.738531	0.093033	0.739733	0.672334	0.027609
10998		9.575660	0.959280	0.103047	-0.007702	0.018526	0.018252	1.000000	-0.000096	0.000232	0.000228	-0.082686	0.049614	0.995340	0.668494	-0.737966	0.092319	0.739107	0.673012	0.027852
10999		9.506259	0.896535	0.134808	0.004107	0.025645	0.019087	1.000000	0.000051	0.000321	0.000239	-0.082356	0.049029	0.995396	0.667781	-0.738696	0.091635	0.739788	0.672253	0.028095
11000		9.551546	0.881701	0.101099	0.016543	0.016814	0.015086	1.000000	0.000207	0.000210	0.000189	-0.081963	0.048491	0.995455	0.668371	-0.738241	0.090993	0.739298	0.672792	0.028099
11001		9.547502	0.970844	0.100758	0.007864	0.012887	0.008753	1.000000	0.000098	0.000161	0.000109	-0.081876	0.048533	0.995460	0.668275	-0.738333	0.090962	0.739395	0.672688	0.028018
11002		9.555322	0.929911	0.100056	0.014512	0.023061	0.005673	1.000000	0.000181	0.000288	0.000071	-0.081927	0.048032	0.995480	0.668718	-0.737971	0.090641	0.738989	0.673121	0.028340
11003		9.591822	0.860561	0.139058	0.018204	0.018762	0.010415	1.000000	0.000228	0.000235	0.000130	-0.081676	0.047617	0.995521	0.669344	-0.737459	0.090189	0.738450	0.673712	0.028360
11004		9.609102	0.950780	0.144184	0.011326	0.018017	0.014227	1.000000	0.000142	0.000225	0.000178	-0.081346	0.047375	0.995559	0.668793	-0.738009	0.089765	0.738985	0.673126	0.028350
11005		9.519827	0.950159	0.147922	0.016928	0.026452	0.008969	1.000000	0.000212	0.000331	0.000112	-0.081149	0.046968	0.995595	0.669579	-0.737346	0.089361	0.738294	0.673881	0.028386
11006		9.563129	0.985595	0.031473	0.007929	0.018435	0.007845	1.000000	0.000099	0.000230	0.000098	-0.080979	0.047104	0.995602	0.668421	-0.738402	0.089303	0.739362	0.672713	0.028310
11007		9.599807	0.946372	0.101956	0.005190	0.020868	0.009818	1.000000	0.000065	0.000261	0.000123	-0.080953	0.046691	0.995624	0.668658	-0.738226	0.088987	0.739150	0.672936	0.028541
11008		9.554132	0.958333	0.207766	0.016599	0.024099	0.021015	1.000000	0.000207	0.000301	0.000263	-0.080984	0.046022	0.995652	0.668496	-0.738430	0.088506	0.739293	0.672758	0.029036
11009		9.560522	0.978044	0.140396	-0.013594	0.015573	0.016817	1.000000	-0.000170	0.000195	0.000210	-0.080616	0.045747	0.995695	0.667506	-0.739384	0.088015	0.740228	0.671728	0.029070
11010		9.553343	0.933802	0.148231	-0.013473	0.022970	0.012840	1.000000	-0.000168	0.000287	0.000161	-0.080149	0.045485	0.995745	0.667270	-0.739658	0.087497	0.740491	0.671444	0.028932
11011		9.583984	0.868636	0.152323	-0.005092	0.018486	0.013494	1.000000	-0.000064	0.000231	0.000169	-0.079755	0.045236	0.995788	0.667050	-0.739911	0.087038	0.740732	0.671182	0.028837
11012		9.595341	0.863530	0.128083	-0.016542	0.017251	0.014272	1.000000	-0.000207	0.000216	0.000178	-0.079473	0.044886	0.995826	0.667493	-0.739562	0.086605	0.740363	0.671590	0.028814
11013		9.558975	0.827584	0.104047	-0.013271	0.019653	0.011587	1.000000	-0.000166	0.000246	0.000145	-0.079138	0.044691	0.995861	0.665623	-0.741298	0.086162	0.742081	0.669687	0.028918
11014		9.578091	0.814296	0.106700	-0.000647	0.017776	0.010043	1.000000	-0.000008	0.000222	0.000126	-0.078682	0.044422	0.995910	0.665210	-0.741728	0.085640	0.742499	0.669228	0.028811
11015		9.580743	0.854347	0.149349	0.005441	0.019265	0.007090	1.000000	0.000068	0.000241	0.000089	-0.078288	0.044301	0.995946	0.665801	-0.741237	0.085307	0.742011	0.669780	0.028534
11016		9.555128	0.858409	0.166766	0.005083	0.019417	0.006525	1.000000	0.000064	0.000243	0.000082	-0.078287	0.043971	0.995961	0.666291	-0.740823	0.085080	0.741571	0.670260	0.028699
11017		9.585901	0.850024	0.117353	-0.001844	0.019121	0.003954	1.000000	-0.000023	0.000239	0.000049	-0.078103	0.043922	0.995977	0.665556	-0.741505	0.084892	0.742250	0.669509	0.028681
11018		9.579891	0.864401	0.125330	0.001741	0.019521	0.004912	1.000000	0.000022	0.000244	0.000061	-0.077944	0.043496	0.996008	0.666159	-0.741008	0.084491	0.741726	0.670086	0.028782
11019		9.556324	0.914979	0.103800	-0.002828	0.014883	0.006067	1.000000	-0.000035	0.000186	0.000076	-0.077737	0.043244	0.996036	0.665175	-0.741933	0.084127	0.742629	0.669078	0.028911
11020		9.570310	0.855519	0.176841	-0.004594	0.019800	-0.000931	1.000000	-0.000057	0.000247	-0.000012	-0.077810	0.043050	0.996038	0.665325	-0.741809	0.084037	0.742488	0.669228	0.029078
11021		9.550996	0.805626	0.120530	-0.004046	0.018417	0.000465	1.000000	-0.000051	0.000230	0.000006	-0.077651	0.043049	0.996051	0.665059	-0.742061	0.083918	0.742743	0.668948	0.028992
11022		9.603167	0.829989	0.107070	0.003081	0.015625	-0.001376	1.000000	0.000039	0.000195	-0.000017	-0.077585	0.043227	0.996048	0.664578	-0.742484	0.083988	0.743180	0.668468	0.028878
11023		9.593460	0.838340	0.170268	0.002824	0.021108	0.000338	1.000000	0.000035	0.000264	0.000004	-0.077563	0.043024	0.996059	0.665696	-0.741495	0.083866	0.742181	0.669578	0.028872
11024		9.528837	0.848553	0.122426	-0.008071	0.018394	0.004074	1.000000	-0.000101	0.000230	0.000051	-0.077235	0.042981	0.996086	0.665721	-0.741501	0.083615	0.742193	0.669573	0.028656
11025		9.547811	0.852501	0.140618	0.006022	0.017849	0.000154	1.000000	0.000075	0.000223	0.000002	-0.076962	0.042871	0.996112	0.665606	-0.741634	0.083345	0.742324	0.669433	0.028542
11026		9.600817	0.847601	0.149290	0.011010	0.017845	0.000190	1.000000	0.000138	0.000223	0.000002	-0.076951	0.042651	0.996122	0.666490	-0.740856	0.083208	0.741532	0.670308	0.028583
11027		9.594682	0.847723	0.140935	0.004454	0.017178	0.001348	1.000000	0.000056	0.000215	0.000017	-0.076979	0.042548	0.996124	0.666202	-0.741123	0.083139	0.741788	0.670020	0.028706
11028		9.563614	0.823934	0.167871	0.000454	0.021080	0.003953	1.000000	0.000006	0.000264	0.000049	-0.077025	0.042279	0.996132	0.666862	-0.740545	0.082995	0.741189	0.670676	0.028846
11029		9.587064	0.870704	0.138964	-0.021878	0.015511	-0.000010	1.000000	-0.000273	0.000194	-0.000000	-0.076829	0.042333	0.996145	0.665944	-0.741385	0.082868	0.742035	0.669744	0.028768
11030		9.539268	0.839294	0.143298	0.001914	0.022298	0.003132	1.000000	0.000024	0.000279	0.000039	-0.076836	0.042051	0.996157	0.665130	-0.742142	0.082631	0.742764	0.668923	0.029054
11031		9.568821	0.805520	0.125290	0.015258	0.019997	0.004359	1.000000	0.000191	0.000250	0.000054	-0.076758	0.041933	0.996168	0.664490	-0.742733	0.082466	0.743345	0.668273	0.029147
11032		9.587736	0.854897	0.190970	0.000980	0.020018	0.000577	1.000000	0.000012	0.000250	0.000007	-0.076626	0.041555	0.996194	0.665570	-0.741801	0.082139	0.742391	0.669331	0.029184
11033		9.586176	0.833106	0.150232	0.008358	0.023619	0.000754	1.000000	0.000104	0.000295	0.000009	-0.076855	0.041327	0.996185	0.665429	-0.741931	0.082116	0.742494	0.669201	0.029521
11034		9.570226	0.860857	0.140407	-0.001612	0.017631	-0.000402	1.000000	-0.000020	0.000220	-0.000005	-0.076680	0.041217	0.996203	0.665380	-0.741997	0.081915	0.742557	0.669135	0.029471
11035		9.569345	0.840685	0.152683	0.004706	0.021696	-0.001914	1.000000	0.000059	0.000271	-0.000024	-0.076539	0.041138	0.996218	0.665369	-0.742024	0.081761	0.742581	0.669110	0.029422
11036		9.586569	0.804541	0.186896	0.011963	0.021936	-0.000346	1.000000	0.000150	0.000274	-0.000004	-0.076545	0.040888	0.996227	0.666170	-0.741322	0.081611	0.741862	0.669903	0.029507
11037		9.593352	0.794755	0.164906	0.004679	0.017884	-0.002499	1.000000	0.000058	0.000224	-0.000031	-0.076664	0.040676	0.996227	0.666023	-0.741463	0.081527	0.741981	0.669760	0.029752
11038		9.588662	0.801535	0.187105	0.003583	0.020094	0.002641	1.000000	0.000045	0.000251	0.000033	-0.076589	0.040762	0.996229	0.665157	-0.742242	0.081507	0.742766	0.668891	0.029734
11039		9.567721	0.818767	0.125289	-0.000215	0.016784	0.005018	1.000000	-0.000003	0.000210	0.000063	-0.076530	0.040678	0.996237	0.664798	-0.742576	0.081390	0.743092	0.668526	0.029787
11040		9.584079	0.805732	0.213443	0.009623	0.019295	0.009154	1.000000	0.000120	0.000241	0.000114	-0.076404	0.040248	0.996264	0.665682	-0.741824	0.081020	0.742314	0.669386	0.029886
11041		9.605562	0.868909	0.207713	-0.042366	0.003836	0.012067	1.000000	-0.000530	0.000048	0.000151	-0.075739	0.040008	0.996325	0.665063	-0.742450	0.080371	0.742937	0.668705	0.029625
11042		9.557184	0.897303	0.089281	-0.082438	0.010491	0.011419	0.999999	-0.001030	0.000131	0.000143	-0.075368	0.039933	0.996356	0.663067	-0.744275	0.079987	0.744756	0.666679	0.029616
11043		9.569204	0.843556	0.148399	-0.037495	0.017829	0.016273	1.000000	-0.000469	0.000223	0.000203	-0.075057	0.039551	0.996395	0.662869	-0.744504	0.079486	0.744964	0.666445	0.029663
11044		9.570299	0.874850	0.160860	-0.033105	0.011254	0.018527	1.000000	-0.000414	0.000141	0.000232	-0.074576	0.039073	0.996450	0.663247	-0.744238	0.078822	0.744676	0.666770	0.029587
11045		9.615612	0.886094	0.235950	-0.011704	0.021298	0.009970	1.000000	-0.000146	0.000266	0.000125	-0.074319	0.038586	0.996488	0.663596	-0.743982	0.078300	0.744391	0.667084	0.029686
11046		9.570991	0.856433	0.208041	-0.018722	0.018556	-0.003980	1.000000	-0.000234	0.000232	-0.000050	-0.074282	0.038576	0.996491	0.663622	-0.743962	0.078269	0.744371	0.667107	0.029663
11047		9.566647	0.758947	0.120302	-0.004118	0.021222	-0.008632	1.000000	-0.000051	0.000265	-0.000108	-0.074446	0.038587	0.996478	0.663110	-0.744408	0.078367	0.744811	0.666609	0.029831
11048		9.600238	0.764655	0.078398	0.017003	0.019622	0.000906	1.000000	0.000213	0.000245	0.000011	-0.074353	0.038492	0.996489	0.663076	-0.744453	0.078232	0.744850	0.666565	0.029829
11049		9.560979	0.840966	0.172958	0.028927	0.023924	0.000996	1.000000	0.000362	0.000299	0.000012	-0.074438	0.038193	0.996494	0.663592	-0.744008	0.078086	0.744382	0.667078	0.030038
11050		9.569093	0.884196	0.282356	0.016965	0.022239	-0.004986	1.000000	0.000212	0.000278	-0.000062	-0.074537	0.038145	0.996488	0.663107	-0.744439	0.078097	0.744804	0.666599	0.030194
11051		9.580319	0.867843	0.189198	-0.018327	0.016433	-0.007111	1.000000	-0.000229	0.000205	-0.000089	-0.074805	0.038004	0.996474	0.663151	-0.744392	0.078173	0.744738	0.666660	0.030482
11052		9.594184	0.754572	0.122950	0.006019	0.022266	-0.008789	1.000000	0.000075	0.000278	-0.000110	-0.075124	0.038098	0.996446	0.662663	-0.744799	0.078436	0.745141	0.666200	0.030706
11053		9.586585	0.780225	0.116394	0.018343	0.017812	-0.003298	1.000000	0.000229	0.000223	-0.000041	-0.075179	0.038058	0.996444	0.663037	-0.744464	0.078458	0.744802	0.666577	0.030734
11054		9.594000	0.853238	0.203010	0.013661	0.020054	-0.005515	1.000000	0.000171	0.000251	-0.000069	-0.075217	0.038027	0.996442	0.663747	-0.743828	0.078490	0.744166	0.667289	0.030708
11055		9.558490	0.859296	0.239763	0.012265	0.020896	-0.010961	1.000000	0.000153	0.000261	-0.000137	-0.075388	0.038238	0.996421	0.664286	-0.743315	0.078784	0.743667	0.667848	0.030636
11056		9.605085	0.856288	0.183709	0.008876	0.019272	-0.011116	1.000000	0.000111	0.000241	-0.000139	-0.075734	0.038534	0.996383	0.663373	-0.744086	0.079198	0.744447	0.666972	0.030790
11057		9.576581	0.851370	0.140214	-0.001382	0.018539	-0.007446	1.000000	-0.000017	0.000232	-0.000093	-0.075757	0.038459	0.996384	0.663581	-0.743903	0.079167	0.744258	0.667180	0.030835
11058		9.575897	0.802010	0.121243	0.007694	0.023531	-0.003923	1.000000	0.000096	0.000294	-0.000049	-0.076028	0.038393	0.996366	0.663289	-0.744151	0.079287	0.744491	0.666907	0.031110
11059		9.591546	0.855978	0.195972	0.010034	0.015515	-0.002321	1.000000	0.000125	0.000194	-0.000029	-0.075898	0.038279	0.996381	0.663764	-0.743744	0.079134	0.744081	0.667368	0.031041
11060		9.556922	0.881566	0.224745	0.004062	0.021615	-0.006614	1.000000	0.000051	0.000270	-0.000083	-0.075795	0.038181	0.996392	0.664252	-0.743321	0.079013	0.743656	0.667844	0.030979
11061		9.595679	0.787216	0.201562	0.010868	0.022676	-0.006784	1.000000	0.000136	0.000283	-0.000085	-0.075788	0.038164	0.996393	0.664449	-0.743146	0.079004	0.743481	0.668040	0.030963
11062		9.611691	0.808862	0.137694	0.009410	0.015044	-0.000653	1.000000	0.000118	0.000188	-0.000008	-0.075815	0.038049	0.996396	0.664745	-0.742887	0.078948	0.743213	0.668335	0.031029
11063		9.572279	0.920533	0.185761	-0.001008	0.019767	-0.003627	1.000000	-0.000013	0.000247	-0.000045	-0.075797	0.038038	0.996398	0.664625	-0.742997	0.078923	0.743322	0.668213	0.031036
11064		9.550451	0.870989	0.215142	-0.002204	0.023068	-0.006077	1.000000	-0.000028	0.000288	-0.000076	-0.076037	0.038081	0.996378	0.664547	-0.743047	0.079113	0.743368	0.668155	0.031192
11065		9.596357	0.781163	0.181155	0.004429	0.019052	-0.003353	1.000000	0.000055	0.000238	-0.000042	-0.075954	0.037884	0.996391	0.665486	-0.742223	0.078950	0.742536	0.669081	0.031164
11066		9.580682	0.795487	0.208380	0.003555	0.018076	-0.001033	1.000000	0.000044	0.000226	-0.000013	-0.076030	0.037742	0.996391	0.665638	-0.742092	0.078901	0.742392	0.669234	0.031299
11067		9.577723	0.828616	0.199775	0.004126	0.020821	-0.003828	1.000000	0.000052	0.000260	-0.000048	-0.075916	0.037647	0.996403	0.666371	-0.741446	0.078785	0.741746	0.669955	0.031201
11068		9.586039	0.824412	0.154849	-0.002449	0.020045	-0.001143	1.000000	-0.000031	0.000251	-0.000014	-0.075953	0.037601	0.996402	0.666148	-0.741649	0.078766	0.741942	0.669734	0.031283
11069		9.572603	0.835848	0.227039	0.007510	0.019825	0.002217	1.000000	0.000094	0.000248	0.000028	-0.075939	0.037405	0.996411	0.666188	-0.741629	0.078613	0.741907	0.669767	0.031400
11070		9.576204	0.823403	0.237598	0.011294	0.023014	0.001444	1.000000	0.000141	0.000288	0.000018	-0.075949	0.037207	0.996417	0.666393	-0.741459	0.078480	0.741723	0.669966	0.031518
11071		9.594755	0.841621	0.218733	0.003378	0.016892	0.000822	1.000000	0.000042	0.000211	0.000010	-0.075751	0.037079	0.996437	0.667352	-0.740616	0.078293	0.740880	0.670905	0.031358
11072		9.567087	0.819503	0.159338	-0.000527	0.020653	-0.003369	1.000000	-0.000007	0.000258	-0.000042	-0.076020	0.037057	0.996417	0.666552	-0.741322	0.078423	0.741572	0.670126	0.031655
11073		9.636777	0.792452	0.161999	0.020356	0.024421	0.001238	1.000000	0.000254	0.000305	0.000015	-0.076019	0.036799	0.996427	0.667102	-0.740845	0.078254	0.741078	0.670667	0.031769
11074		9.570316	0.807555	0.228636	0.015538	0.020378	0.011058	1.000000	0.000194	0.000255	0.000138	-0.075740	0.036480	0.996460	0.667916	-0.740153	0.077864	0.740373	0.671449	0.031694
11075		9.546870	0.806966	0.236794	0.004625	0.021579	0.013647	1.000000	0.000058	0.000270	0.000171	-0.075580	0.036212	0.996482	0.667487	-0.740573	0.077540	0.740775	0.671000	0.031801
11076		9.571513	0.742077	0.228971	0.002664	0.019558	0.012577	1.000000	0.000033	0.000244	0.000157	-0.075428	0.035742	0.996511	0.667693	-0.740434	0.077096	0.740606	0.671178	0.031985
11077		9.633061	0.758099	0.167043	0.007125	0.014638	0.015005	1.000000	0.000089	0.000183	0.000188	-0.075154	0.035436	0.996542	0.667280	-0.740851	0.076667	0.741006	0.670734	0.032032
11078		9.630681	0.824538	0.219616	0.019411	0.022985	0.009907	1.000000	0.000243	0.000287	0.000124	-0.075052	0.035087	0.996562	0.667531	-0.740657	0.076350	0.740790	0.670967	0.032166
11079		9.600180	0.857178	0.299821	0.015023	0.018259	0.004301	1.000000	0.000188	0.000228	0.000054	-0.075009	0.034909	0.996572	0.667566	-0.740642	0.076190	0.740762	0.670993	0.032251
11080		9.553305	0.888823	0.234729	-0.005373	0.015204	0.003140	1.000000	-0.000067	0.000190	0.000039	-0.074924	0.034617	0.996588	0.667704	-0.740545	0.075922	0.740647	0.671114	0.032371
11081		9.590560	0.874450	0.167982	0.001717	0.016978	-0.000834	1.000000	0.000021	0.000212	-0.000010	-0.074897	0.034602	0.996591	0.667547	-0.740691	0.075886	0.740791	0.670955	0.032377
11082		9.566436	0.812327	0.189490	0.004741	0.018743	-0.001244	1.000000	0.000059	0.000234	-0.000016	-0.075025	0.034526	0.996584	0.667750	-0.740503	0.075924	0.740595	0.671165	0.032501
11083		9.592229	0.792529	0.219270	0.001527	0.015698	0.002621	1.000000	0.000019	0.000196	0.000033	-0.074803	0.034487	0.996602	0.668097	-0.740207	0.075760	0.740304	0.671494	0.032329
11084		9.612728	0.837697	0.221820	-0.008408	0.012139	-0.001325	1.000000	-0.000105	0.000152	-0.000017	-0.074756	0.034654	0.996600	0.667213	-0.740998	0.075815	0.741106	0.670612	0.032272
11085		9.586303	0.829802	0.275132	-0.000453	0.016067	-0.001164	1.000000	-0.000006	0.000201	-0.000015	-0.074746	0.034672	0.996600	0.667452	-0.740782	0.075832	0.740892	0.670851	0.032229
11086		9.584078	0.781718	0.210269	-0.008482	0.012906	-0.004139	1.000000	-0.000106	0.000161	-0.000052	-0.074601	0.034828	0.996605	0.666994	-0.741194	0.075830	0.741319	0.670386	0.032064
11087		9.586825	0.764117	0.189042	0.003306	0.013952	-0.004166	1.000000	0.000041	0.000174	-0.000052	-0.074503	0.035082	0.996603	0.666535	-0.741596	0.075934	0.741741	0.669928	0.031868
11088		9.606410	0.760463	0.221073	0.004069	0.012873	-0.000220	1.000000	0.000051	0.000161	-0.000003	-0.074343	0.035033	0.996617	0.666829	-0.741346	0.075802	0.741493	0.670208	0.031753
11089		9.577619	0.798547	0.222993	-0.005425	0.013684	0.001439	1.000000	-0.000068	0.000171	0.000018	-0.074141	0.035004	0.996633	0.666400	-0.741749	0.075627	0.741899	0.669764	0.031668
11090		9.599624	0.820026	0.223964	0.002117	0.010858	-0.001288	1.000000	0.000026	0.000136	-0.000016	-0.074024	0.034917	0.996645	0.666630	-0.741556	0.075492	0.741704	0.669981	0.031616
11091		9.570622	0.808011	0.201563	-0.008792	0.010778	-0.003591	1.000000	-0.000110	0.000135	-0.000045	-0.073946	0.034988	0.996648	0.665984	-0.742139	0.075465	0.742292	0.669332	0.031577
11092		9.584284	0.754091	0.197014	0.005763	0.013083	-0.003362	1.000000	0.000072	0.000164	-0.000042	-0.073998	0.034922	0.996647	0.666422	-0.741746	0.075470	0.741894	0.669772	0.031614
11093		9.603729	0.779497	0.206980	0.008145	0.014279	-0.000506	1.000000	0.000102	0.000178	-0.000006	-0.074065	0.034937	0.996641	0.666379	-0.741779	0.075525	0.741926	0.669734	0.031659
11094		9.581714	0.808902	0.235851	-0.003798	0.012169	-0.000214	1.000000	-0.000047	0.000152	-0.000003	-0.073850	0.034835	0.996661	0.666908	-0.741323	0.075327	0.741471	0.670244	0.031514
11095		9.588205	0.778396	0.220161	-0.000668	0.013379	-0.000988	1.000000	-0.000008	0.000167	-0.000012	-0.073902	0.034812	0.996658	0.666193	-0.741967	0.075314	0.742109	0.669532	0.031642
11096		9.584342	0.768676	0.171224	-0.003459	0.008123	0.001394	1.000000	-0.000043	0.000102	0.000017	-0.073752	0.034822	0.996669	0.665848	-0.742287	0.075206	0.742433	0.669176	0.031559
11097		9.573538	0.775753	0.178835	0.007900	0.013875	-0.001446	1.000000	0.000099	0.000173	-0.000018	-0.073752	0.034853	0.996667	0.665661	-0.742453	0.075221	0.742601	0.668991	0.031558
11098		9.642230	0.808651	0.189079	0.014753	0.011359	-0.005302	1.000000	0.000184	0.000142	-0.000066	-0.073749	0.034900	0.996666	0.665730	-0.742388	0.075257	0.742540	0.669060	0.031517
11099		9.579131	0.798845	0.243125	0.010447	0.016237	-0.000463	1.000000	0.000131	0.000203	-0.000006	-0.073777	0.034879	0.996665	0.665603	-0.742502	0.075255	0.742650	0.668936	0.031564
11100		9.551192	0.807267	0.213582	0.005968	0.011965	-0.004111	1.000000	0.000075	0.000150	-0.000051	-0.073695	0.034951	0.996668	0.666077	-0.742075	0.075273	0.742234	0.669405	0.031407
11101		9.579243	0.814692	0.210833	-0.005416	0.007195	-0.007265	1.000000	-0.000068	0.000090	-0.000091	-0.073552	0.035124	0.996673	0.666410	-0.741771	0.075320	0.741948	0.669733	0.031152
11102		9.608296	0.762767	0.198866	0.006331	0.011917	-0.005132	1.000000	0.000079	0.000149	-0.000064	-0.073526	0.035190	0.996672	0.666596	-0.741600	0.075360	0.741784	0.669919	0.031070
11103		9.611798	0.722885	0.229480	0.019063	0.013162	-0.004646	1.000000	0.000238	0.000165	-0.000058	-0.073549	0.035167	0.996671	0.667564	-0.740725	0.075398	0.740911	0.670887	0.031004
11104		9.601890	0.751392	0.229574	0.016168	0.012350	-0.002938	1.000000	0.000202	0.000154	-0.000037	-0.073515	0.035295	0.996669	0.667708	-0.740587	0.075477	0.740785	0.671032	0.030878
11105		9.580197	0.766615	0.241927	0.015300	0.010087	-0.005478	1.000000	0.000191	0.000126	-0.000068	-0.073432	0.035369	0.996673	0.668165	-0.740173	0.075495	0.740381	0.671485	0.030720
11106		9.596344	0.797002	0.161530	0.015297	0.010084	-0.005480	1.000000	0.000191	0.000126	-0.000069	-0.073482	0.035481	0.996665	0.668044	-0.740271	0.075606	0.740485	0.671372	0.030693
11107		9.580834	0.847441	0.194022	0.008199	0.008315	-0.001527	1.000000	0.000102	0.000104	-0.000019	-0.073241	0.035504	0.996682	0.668714	-0.739677	0.075489	0.739903	0.672024	0.030433
11108		9.566881	0.823138	0.201791	-0.001467	0.009042	-0.005602	1.000000	-0.000018	0.000113	-0.000070	-0.073262	0.035611	0.996677	0.668811	-0.739580	0.075587	0.739814	0.672126	0.030366
11109		9.608316	0.791156	0.207390	0.002221	0.008989	-0.006542	1.000000	0.000028	0.000112	-0.000082	-0.073182	0.035888	0.996673	0.668509	-0.739839	0.075726	0.740095	0.671826	0.030152
11110		9.594300	0.796342	0.192838	0.000236	0.006767	-0.004428	1.000000	0.000003	0.000085	-0.000055	-0.073091	0.036024	0.996674	0.668274	-0.740048	0.075756	0.740315	0.671589	0.030017
11111		9.602420	0.764772	0.220799	0.006620	0.010139	-0.004664	1.000000	0.000083	0.000127	-0.000058	-0.073054	0.036166	0.996672	0.668068	-0.740227	0.075828	0.740506	0.671384	0.029915
11112		9.592004	0.815383	0.167473	-0.009967	0.003894	-0.001296	1.000000	-0.000125	0.000049	-0.000016	-0.072827	0.036314	0.996683	0.667902	-0.740381	0.075779	0.740677	0.671206	0.029666
11113		9.572950	0.797639	0.192430	-0.005417	0.008584	-0.004016	1.000000	-0.000068	0.000107	-0.000050	-0.072736	0.036522	0.996682	0.667175	-0.741030	0.075843	0.741342	0.670478	0.029533
11114		9.590846	0.767315	0.200992	0.003577	0.008271	-0.002669	1.000000	0.000045	0.000103	-0.000033	-0.072655	0.036688	0.996682	0.666603	-0.741540	0.075890	0.741864	0.669905	0.029420
11115		9.588247	0.749444	0.165917	0.009400	0.009020	-0.001686	1.000000	0.000118	0.000113	-0.000021	-0.072435	0.036671	0.996699	0.667501	-0.740744	0.075764	0.741077	0.670785	0.029178
11116		9.600929	0.776519	0.215409	0.014943	0.007754	-0.001729	1.000000	0.000187	0.000097	-0.000022	-0.072380	0.036719	0.996701	0.667755	-0.740514	0.075773	0.740854	0.671037	0.029079
11117		9.576633	0.852750	0.191114	-0.013611	0.004151	-0.003547	1.000000	-0.000170	0.000052	-0.000044	-0.072022	0.036930	0.996719	0.668098	-0.740212	0.075702	0.740579	0.671358	0.028639
11118		9.589481	0.778389	0.193303	-0.001149	0.008778	-0.003447	1.000000	-0.000014	0.000110	-0.000043	-0.071757	0.037136	0.996731	0.668128	-0.740188	0.075678	0.740578	0.671374	0.028302
11119		9.584353	0.763660	0.166827	-0.004018	0.005595	0.000990	1.000000	-0.000050	0.000070	0.000012	-0.071534	0.037182	0.996745	0.668296	-0.740047	0.075568	0.740448	0.671526	0.028090
11120		9.578122	0.779279	0.171460	-0.003219	0.007215	-0.002556	1.000000	-0.000040	0.000090	-0.000032	-0.071311	0.037273	0.996758	0.668594	-0.739785	0.075497	0.740201	0.671810	0.027834
11121		9.593417	0.781590	0.166509	0.012418	0.009378	-0.005353	1.000000	0.000155	0.000117	-0.000067	-0.071280	0.037467	0.996752	0.668563	-0.739801	0.075620	0.740231	0.671782	0.027684
11122		9.556406	0.773692	0.139238	0.000233	0.006762	-0.004433	1.000000	0.000003	0.000085	-0.000055	-0.071214	0.037583	0.996753	0.668700	-0.739672	0.075666	0.740114	0.671917	0.027543
11123		9.631189	0.762644	0.167808	0.007393	0.007767	-0.005567	1.000000	0.000092	0.000097	-0.000070	-0.071126	0.037825	0.996750	0.668609	-0.739743	0.075782	0.740205	0.671826	0.027324
11124		9.594645	0.761082	0.170646	-0.006198	0.007062	-0.002074	1.000000	-0.000077	0.000088	-0.000026	-0.070922	0.037943	0.996760	0.668729	-0.739639	0.075737	0.740116	0.671934	0.027083
11125		9.532480	0.749806	0.169687	0.001329	0.008019	-0.004226	1.000000	0.000017	0.000100	-0.000053	-0.070747	0.038019	0.996769	0.669577	-0.738874	0.075707	0.739365	0.672770	0.026816
11126		9.567569	0.813518	0.178985	0.004362	0.003091	-0.010111	1.000000	0.000055	0.000039	-0.000126	-0.070739	0.038425	0.996754	0.668946	-0.739417	0.075979	0.739937	0.672150	0.026602
11127		9.605358	0.823779	0.155806	-0.000627	0.006973	-0.011294	1.000000	-0.000008	0.000087	-0.000141	-0.070750	0.038780	0.996740	0.668841	-0.739485	0.076247	0.740031	0.672055	0.026381
11128		9.603740	0.770111	0.157625	0.015363	0.011902	-0.008570	1.000000	0.000192	0.000149	-0.000107	-0.070699	0.038913	0.996738	0.669472	-0.738904	0.076333	0.739465	0.672686	0.026189
11129		9.615135	0.807295	0.193132	0.010770	0.009480	-0.006991	1.000000	0.000135	0.000118	-0.000087	-0.070601	0.039086	0.996739	0.669940	-0.738473	0.076412	0.739051	0.673149	0.025952
11130		9.573262	0.842500	0.191614	0.006758	0.009783	-0.008223	1.000000	0.000084	0.000122	-0.000103	-0.070608	0.039356	0.996727	0.669382	-0.738959	0.076597	0.739555	0.672600	0.025832
11131		9.565727	0.810706	0.128561	-0.000166	0.009175	-0.006153	1.000000	-0.000002	0.000115	-0.000077	-0.070653	0.039573	0.996716	0.668967	-0.739317	0.076774	0.739927	0.672194	0.025762
11132		9.573162	0.823718	0.150127	0.000632	0.008317	-0.005378	1.000000	0.000008	0.000104	-0.000067	-0.070625	0.039721	0.996712	0.668836	-0.739426	0.076860	0.740048	0.672065	0.025655
11133		9.572967	0.854380	0.130299	0.000755	0.011745	-0.008396	1.000000	0.000009	0.000147	-0.000105	-0.070663	0.039850	0.996704	0.669037	-0.739231	0.076988	0.739863	0.672272	0.025575
11134		9.560623	0.778284	0.159939	0.012868	0.012651	-0.007802	1.000000	0.000161	0.000158	-0.000098	-0.070695	0.039999	0.996696	0.669370	-0.738915	0.077132	0.739558	0.672611	0.025464
11135		9.568306	0.769803	0.135997	0.009556	0.008770	-0.006834	1.000000	0.000119	0.000110	-0.000085	-0.070600	0.040057	0.996700	0.670432	-0.737950	0.077147	0.738605	0.673666	0.025244
11136		9.592744	0.847312	0.181001	0.003627	0.008567	-0.007460	1.000000	0.000045	0.000107	-0.000093	-0.070539	0.040244	0.996697	0.670843	-0.737564	0.077259	0.738237	0.674077	0.025030
11137		9.592182	0.814005	0.175453	0.011015	0.012448	-0.011976	1.000000	0.000138	0.000156	-0.000150	-0.070618	0.040443	0.996683	0.671269	-0.737154	0.077474	0.737842	0.674514	0.024909
11138		9.584794	0.753556	0.134973	-0.000887	0.009367	-0.005716	1.000000	-0.000011	0.000117	-0.000071	-0.070462	0.040518	0.996691	0.671901	-0.736581	0.077445	0.737282	0.675135	0.024677
11139		9.563662	0.782335	0.109373	0.001966	0.011481	-0.002565	1.000000	0.000025	0.000144	-0.000032	-0.070432	0.040619	0.996689	0.671594	-0.736856	0.077489	0.737564	0.674829	0.024619
11140		9.594981	0.799777	0.158805	0.009647	0.012090	-0.008265	1.000000	0.000121	0.000151	-0.000103	-0.070407	0.040810	0.996683	0.671981	-0.736489	0.077626	0.737214	0.675218	0.024431
11141		9.564364	0.805267	0.106976	-0.010662	0.009559	-0.001865	1.000000	-0.000133	0.000119	-0.000023	-0.070298	0.040860	0.996689	0.671936	-0.736534	0.077588	0.737265	0.675165	0.024321
11142		9.592528	0.782962	0.126948	-0.003164	0.010419	-0.002418	1.000000	-0.000040	0.000130	-0.000030	-0.070269	0.040943	0.996688	0.671838	-0.736619	0.077626	0.737357	0.675067	0.024254
11143		9.566155	0.818199	0.119066	-0.010260	0.011118	-0.002807	1.000000	-0.000128	0.000139	-0.000035	-0.070130	0.040970	0.996696	0.672119	-0.736369	0.077561	0.737114	0.675338	0.024105
11144		9.568238	0.808527	0.181542	0.004922	0.015508	-0.004109	1.000000	0.000062	0.000194	-0.000051	-0.070177	0.040911	0.996695	0.672338	-0.736170	0.077556	0.736910	0.675559	0.024156
11145		9.583967	0.789384	0.132287	-0.000683	0.012131	-0.007519	1.000000	-0.000009	0.000152	-0.000094	-0.070272	0.041082	0.996682	0.671851	-0.736596	0.077731	0.737345	0.675084	0.024161
11146		9.594394	0.748380	0.122693	0.001845	0.014497	-0.006531	1.000000	0.000023	0.000181	-0.000082	-0.070378	0.041226	0.996668	0.671297	-0.737084	0.077891	0.737839	0.674542	0.024199
11147		9.579808	0.768341	0.124716	0.001440	0.010468	-0.001263	1.000000	0.000018	0.000131	-0.000016	-0.070207	0.041310	0.996677	0.671525	-0.736882	0.077846	0.737648	0.674759	0.023994
11148		9.601673	0.790646	0.126041	-0.001725	0.015497	-0.004301	1.000000	-0.000022	0.000194	-0.000054	-0.070307	0.041422	0.996665	0.670654	-0.737662	0.077968	0.738431	0.673899	0.024083
11149		9.598091	0.781565	0.176165	0.011087	0.014703	-0.005805	1.000000	0.000139	0.000184	-0.000073	-0.070282	0.041450	0.996666	0.671236	-0.737129	0.077990	0.737904	0.674479	0.023984
11150		9.550273	0.773431	0.124758	0.006483	0.013691	-0.000963	1.000000	0.000081	0.000171	-0.000012	-0.070278	0.041501	0.996664	0.670843	-0.737485	0.078012	0.738262	0.674087	0.023988
11151		9.551379	0.800721	0.150103	0.010110	0.011932	-0.000376	1.000000	0.000126	0.000149	-0.000005	-0.070185	0.041416	0.996674	0.671591	-0.736814	0.077910	0.737590	0.674826	0.023899
11152		9.569788	0.841906	0.175230	0.002227	0.010564	-0.006497	1.000000	0.000028	0.000132	-0.000081	-0.070150	0.041620	0.996668	0.671437	-0.736942	0.078033	0.737734	0.674673	0.023752
11153		9.596620	0.794007	0.173304	0.016970	0.015757	-0.009587	1.000000	0.000212	0.000197	-0.000120	-0.070317	0.041702	0.996653	0.671858	-0.736538	0.078220	0.737335	0.675109	0.023773
11154		9.602911	0.815932	0.181482	0.003063	0.012826	-0.003968	1.000000	0.000038	0.000160	-0.000050	-0.070365	0.041856	0.996643	0.671252	-0.737077	0.078347	0.737882	0.674512	0.023768
11155		9.588092	0.800115	0.176175	-0.004336	0.016790	-0.003192	1.000000	-0.000054	0.000210	-0.000040	-0.070342	0.041877	0.996644	0.671285	-0.737047	0.078348	0.737854	0.674543	0.023734
11156		9.543990	0.779895	0.130993	-0.003087	0.013722	-0.003877	1.000000	-0.000039	0.000172	-0.000048	-0.070347	0.041966	0.996639	0.671025	-0.737277	0.078409	0.738090	0.674286	0.023705
11157		9.580338	0.812869	0.110638	-0.004222	0.007835	-0.007512	1.000000	-0.000053	0.000098	-0.000094	-0.070313	0.042178	0.996633	0.670868	-0.737407	0.078538	0.738236	0.674131	0.023553
11158		9.587511	0.796963	0.155335	0.011564	0.017107	-0.003851	1.000000	0.000145	0.000214	-0.000048	-0.070341	0.042150	0.996632	0.671149	-0.737150	0.078545	0.737978	0.674414	0.023563
11159		9.582144	0.840422	0.184183	-0.000977	0.013017	-0.003626	1.000000	-0.000012	0.000163	-0.000045	-0.070314	0.042213	0.996631	0.671232	-0.737071	0.078576	0.737905	0.674496	0.023491
11160		9.567249	0.818092	0.148372	-0.013166	0.012746	-0.005491	1.000000	-0.000165	0.000159	-0.000069	-0.070294	0.042290	0.996629	0.671209	-0.737087	0.078618	0.737927	0.674473	0.023428
11161		9.573360	0.796862	0.118383	-0.006017	0.011300	-0.002262	1.000000	-0.000075	0.000141	-0.000028	-0.070232	0.042319	0.996633	0.671424	-0.736893	0.078605	0.737738	0.674684	0.023339
11162		9.573255	0.797699	0.121197	-0.000039	0.011709	-0.004803	1.000000	-0.000000	0.000146	-0.000060	-0.070150	0.042406	0.996635	0.671565	-0.736763	0.078618	0.737618	0.674820	0.023205
11163		9.573190	0.805374	0.154431	-0.002154	0.013917	-0.003391	1.000000	-0.000027	0.000174	-0.000042	-0.070171	0.042505	0.996629	0.671191	-0.737096	0.078693	0.737956	0.674450	0.023194
11164		9.574925	0.818170	0.164546	-0.006191	0.012601	-0.004723	1.000000	-0.000077	0.000158	-0.000059	-0.070104	0.042576	0.996631	0.671200	-0.737086	0.078701	0.737954	0.674456	0.023096
11165		9.570041	0.768389	0.131587	0.000218	0.013717	-0.003786	1.000000	0.000003	0.000171	-0.000047	-0.070088	0.042601	0.996631	0.671545	-0.736771	0.078719	0.737642	0.674799	0.023030
11166		9.580947	0.790980	0.107871	0.004336	0.014378	-0.001228	1.000000	0.000054	0.000180	-0.000015	-0.070081	0.042709	0.996627	0.670954	-0.737303	0.078777	0.738180	0.674211	0.023015
11167		9.564489	0.805626	0.133457	-0.001415	0.013811	-0.005435	1.000000	-0.000018	0.000173	-0.000068	-0.070126	0.042779	0.996620	0.670869	-0.737371	0.078856	0.738253	0.674132	0.023009
11168		9.580687	0.799825	0.145082	0.009459	0.017899	-0.005699	1.000000	0.000118	0.000224	-0.000071	-0.070254	0.042782	0.996611	0.671141	-0.737114	0.078953	0.737994	0.674413	0.023073
11169		9.571497	0.819573	0.160188	-0.001164	0.011852	-0.001755	1.000000	-0.000015	0.000148	-0.000022	-0.070080	0.042857	0.996620	0.671014	-0.737236	0.078887	0.738126	0.674274	0.022908
11170		9.554057	0.806840	0.163035	-0.004082	0.013402	-0.002803	1.000000	-0.000051	0.000168	-0.000035	-0.069993	0.042795	0.996629	0.671764	-0.736561	0.078806	0.737451	0.675016	0.022806
11171		9.581436	0.851685	0.124737	-0.009174	0.010927	-0.005942	1.000000	-0.000115	0.000137	-0.000074	-0.069984	0.042962	0.996623	0.671407	-0.736875	0.078912	0.737777	0.674662	0.022725
11172		9.573872	0.806154	0.100540	-0.003219	0.015205	-0.009548	1.000000	-0.000040	0.000190	-0.000119	-0.070113	0.043058	0.996609	0.671538	-0.736739	0.079074	0.737646	0.674805	0.022740
11173		9.574399	0.733921	0.133045	0.005120	0.015028	0.001227	1.000000	0.000064	0.000188	0.000015	-0.070071	0.042983	0.996616	0.671724	-0.736577	0.078995	0.737480	0.674986	0.022740
11174		9.616383	0.807585	0.164156	-0.002177	0.011445	0.000932	1.000000	-0.000027	0.000143	0.000012	-0.069919	0.042992	0.996626	0.671824	-0.736496	0.078903	0.737403	0.675074	0.022612
11175		9.560740	0.821785	0.199149	-0.003382	0.017718	0.001762	1.000000	-0.000042	0.000221	0.000022	-0.069853	0.042796	0.996639	0.672390	-0.735998	0.078731	0.736894	0.675630	0.022636
11176		9.537323	0.839412	0.122867	-0.006525	0.011884	-0.000907	1.000000	-0.000082	0.000149	-0.000011	-0.069761	0.042825	0.996644	0.672251	-0.736130	0.078686	0.737029	0.675484	0.022563
11177		9.561933	0.815978	0.077738	-0.000597	0.014555	-0.004585	1.000000	-0.000007	0.000182	-0.000057	-0.069788	0.042938	0.996637	0.671942	-0.736402	0.078778	0.737309	0.675180	0.022540
11178		9.577838	0.751749	0.133613	0.009927	0.014830	-0.002738	1.000000	0.000124	0.000185	-0.000034	-0.069823	0.042974	0.996633	0.671884	-0.736450	0.078827	0.737358	0.675125	0.022547
11179		9.593970	0.751741	0.175321	0.003624	0.016170	-0.000715	1.000000	0.000045	0.000202	-0.000009	-0.069763	0.042945	0.996639	0.672102	-0.736257	0.078771	0.737165	0.675338	0.022500
11180		9.604943	0.816035	0.189948	0.001645	0.013958	0.001399	1.000000	0.000021	0.000174	0.000017	-0.069697	0.042948	0.996643	0.671722	-0.736609	0.078717	0.737517	0.674954	0.022491
11181		9.567965	0.844119	0.126839	-0.005303	0.014190	-0.000998	1.000000	-0.000066	0.000177	-0.000012	-0.069616	0.042871	0.996652	0.672188	-0.736194	0.078619	0.737100	0.675411	0.022433
11182		9.548708	0.783512	0.115589	0.005306	0.017776	-0.000585	1.000000	0.000066	0.000222	-0.000007	-0.069605	0.042805	0.996656	0.672285	-0.736112	0.078567	0.737013	0.675505	0.022460
11183		9.574959	0.784673	0.138109	0.008652	0.013919	0.000604	1.000000	0.000108	0.000174	0.000008	-0.069494	0.042760	0.996666	0.672684	-0.735757	0.078470	0.736659	0.675894	0.022366
11184		9.593289	0.817898	0.134442	0.006060	0.018329	0.003463	1.000000	0.000076	0.000229	0.000043	-0.069457	0.042666	0.996672	0.672481	-0.735953	0.078370	0.736848	0.675686	0.022425
11185		9.573987	0.834648	0.169041	0.002353	0.013752	0.000949	1.000000	0.000029	0.000172	0.000012	-0.069370	0.042673	0.996678	0.672443	-0.735994	0.078314	0.736891	0.675642	0.022360
11186		9.562183	0.814245	0.155001	-0.003290	0.017150	0.001367	1.000000	-0.000041	0.000214	0.000017	-0.069335	0.042616	0.996683	0.672180	-0.736242	0.078241	0.737134	0.675375	0.022402
11187		9.572504	0.772998	0.101754	-0.000834	0.016302	0.002212	1.000000	-0.000010	0.000204	0.000028	-0.069267	0.042504	0.996692	0.672311	-0.736136	0.078116	0.737021	0.675498	0.022414
11188		9.597779	0.788728	0.140314	0.005450	0.017969	0.003536	1.000000	0.000068	0.000225	0.000044	-0.069216	0.042290	0.996705	0.672966	-0.735556	0.077944	0.736428	0.676143	0.022452
11189		9.561362	0.785029	0.144708	-0.002909	0.016246	0.004760	1.000000	-0.000036	0.000203	0.000060	-0.069075	0.042173	0.996720	0.672977	-0.735565	0.077762	0.736431	0.676141	0.022427
11190		9.568015	0.797684	0.123522	-0.002157	0.016144	0.002723	1.000000	-0.000027	0.000202	0.000034	-0.068990	0.042042	0.996731	0.673248	-0.735332	0.077615	0.736192	0.676401	0.022426
11191		9.564158	0.780195	0.143924	0.000019	0.017149	0.001474	1.000000	0.000000	0.000214	0.000018	-0.068948	0.041968	0.996737	0.673221	-0.735365	0.077532	0.736220	0.676370	0.022448
11192		9.603354	0.779283	0.139188	0.002796	0.018505	0.000148	1.000000	0.000035	0.000231	0.000002	-0.069003	0.041892	0.996737	0.673208	-0.735379	0.077513	0.736226	0.676360	0.022542
11193		9.563338	0.788216	0.137679	0.002813	0.016149	0.002896	1.000000	0.000035	0.000202	0.000036	-0.068953	0.041780	0.996745	0.673349	-0.735262	0.077401	0.736103	0.676494	0.022566
11194		9.581401	0.792256	0.156721	0.006295	0.018810	0.002799	1.000000	0.000079	0.000235	0.000035	-0.068987	0.041696	0.996746	0.672937	-0.735645	0.077349	0.736476	0.676083	0.022691
11195		9.565842	0.789952	0.167631	-0.001699	0.018545	0.004664	1.000000	-0.000021	0.000232	0.000058	-0.068894	0.041522	0.996760	0.672905	-0.735694	0.077157	0.736514	0.676040	0.022745
11196		9.596296	0.799934	0.144211	-0.003825	0.015284	0.007065	1.000000	-0.000048	0.000191	0.000088	-0.068683	0.041369	0.996780	0.672925	-0.735702	0.076901	0.736515	0.676040	0.022692
11197		9.586411	0.754508	0.129535	-0.000762	0.018743	0.005162	1.000000	-0.000010	0.000234	0.000065	-0.068558	0.041172	0.996797	0.673107	-0.735559	0.076677	0.736360	0.676208	0.022715
11198		9.577291	0.771790	0.145510	0.003794	0.018700	0.007956	1.000000	0.000047	0.000234	0.000099	-0.068446	0.040843	0.996818	0.673791	-0.734964	0.076379	0.735745	0.676875	0.022786
11199		9.571710	0.776748	0.167489	-0.000103	0.019945	0.007977	1.000000	-0.000001	0.000249	0.000100	-0.068334	0.040547	0.996838	0.674129	-0.734684	0.076096	0.735446	0.677197	0.022870
11200		9.591961	0.784776	0.163755	-0.008188	0.017225	0.006862	1.000000	-0.000102	0.000215	0.000086	-0.068215	0.040366	0.996854	0.673929	-0.734890	0.075875	0.735640	0.676984	0.022927
11201		9.576844	0.774851	0.144519	-0.014724	0.018166	0.007911	1.000000	-0.000184	0.000227	0.000099	-0.068088	0.040133	0.996872	0.673789	-0.735045	0.075613	0.735780	0.676830	0.023006
11202		9.572971	0.719658	0.157992	-0.012543	0.021422	0.012821	1.000000	-0.000157	0.000268	0.000160	-0.067877	0.039774	0.996901	0.673570	-0.735288	0.075198	0.736000	0.676587	0.023118
11203		9.611017	0.661278	0.109074	-0.006863	0.017268	0.015250	1.000000	-0.000086	0.000216	0.000191	-0.067631	0.039462	0.996930	0.673067	-0.735790	0.074786	0.736482	0.676059	0.023202
11204		9.606947	0.755172	0.183344	0.003612	0.016026	0.008172	1.000000	0.000045	0.000200	0.000102	-0.067500	0.039283	0.996946	0.672953	-0.735918	0.074561	0.736599	0.675930	0.023239
11205		9.584034	0.818785	0.220168	-0.002275	0.018272	0.003127	1.000000	-0.000028	0.000228	0.000039	-0.067481	0.039186	0.996951	0.672454	-0.736384	0.074461	0.737056	0.675428	0.023341
11206		9.560537	0.815672	0.152432	-0.007046	0.021019	0.001118	1.000000	-0.000088	0.000263	0.000014	-0.067508	0.039063	0.996954	0.672015	-0.736794	0.074374	0.737454	0.674988	0.023488
11207		9.579287	0.735367	0.095996	-0.002600	0.016916	0.000880	1.000000	-0.000033	0.000211	0.000011	-0.067482	0.038992	0.996958	0.671914	-0.736893	0.074301	0.737549	0.674884	0.023528
11208		9.591571	0.782384	0.140505	-0.000681	0.017417	0.000291	1.000000	-0.000009	0.000218	0.000004	-0.067440	0.038906	0.996964	0.672082	-0.736748	0.074214	0.737399	0.675047	0.023539
11209		9.579405	0.804934	0.165225	-0.003410	0.020116	-0.002671	1.000000	-0.000043	0.000251	-0.000033	-0.067522	0.038824	0.996962	0.672178	-0.736661	0.074213	0.737304	0.675147	0.023644
11210		9.584468	0.769628	0.174648	-0.000980	0.017664	-0.001884	1.000000	-0.000012	0.000221	-0.000024	-0.067576	0.038742	0.996962	0.672397	-0.736463	0.074196	0.737100	0.675368	0.023717
11211		9.574408	0.763912	0.123085	-0.006659	0.016356	-0.003317	1.000000	-0.000083	0.000204	-0.000041	-0.067636	0.038796	0.996955	0.672006	-0.736813	0.074263	0.737451	0.674983	0.023764
11212		9.587025	0.732118	0.166746	0.003068	0.021418	-0.004869	1.000000	0.000038	0.000268	-0.000061	-0.067778	0.038775	0.996947	0.671939	-0.736865	0.074342	0.737498	0.674927	0.023889
11213		9.586878	0.732890	0.171705	-0.000486	0.020160	-0.001531	1.000000	-0.000006	0.000252	-0.000019	-0.067878	0.038663	0.996944	0.671992	-0.736819	0.074328	0.737441	0.674983	0.024033
11214		9.604122	0.710564	0.169162	-0.001856	0.019905	0.000570	1.000000	-0.000023	0.000249	0.000007	-0.067945	0.038535	0.996945	0.671841	-0.736962	0.074274	0.737573	0.674835	0.024184
11215		9.590205	0.722437	0.142430	-0.003488	0.019150	0.003324	1.000000	-0.000044	0.000239	0.000042	-0.067878	0.038363	0.996956	0.671976	-0.736855	0.074106	0.737455	0.674961	0.024237
11216		9.571079	0.732702	0.147429	0.004681	0.018959	-0.000459	1.000000	0.000059	0.000237	-0.000006	-0.067926	0.038233	0.996958	0.672328	-0.736540	0.074054	0.737130	0.675313	0.024325
11217		9.583717	0.737766	0.154210	0.006721	0.018909	-0.001406	1.000000	0.000084	0.000236	-0.000018	-0.067969	0.038172	0.996957	0.672408	-0.736468	0.074040	0.737053	0.675395	0.024390
11218		9.586526	0.734602	0.150232	0.005897	0.021256	-0.000542	1.000000	0.000074	0.000266	-0.000007	-0.068058	0.038007	0.996957	0.672773	-0.736140	0.073992	0.736712	0.675761	0.024530
11219		9.592194	0.761221	0.190432	0.013372	0.021260	0.003429	1.000000	0.000167	0.000266	0.000043	-0.068072	0.037836	0.996963	0.672889	-0.736045	0.073878	0.736605	0.675874	0.024645
11220		9.583516	0.772990	0.176288	-0.005688	0.017389	0.000047	1.000000	-0.000071	0.000217	0.000001	-0.068079	0.037772	0.996965	0.672726	-0.736199	0.073831	0.736753	0.675711	0.024709
11221		9.569529	0.747557	0.186157	-0.001659	0.020290	0.001485	1.000000	-0.000021	0.000254	0.000019	-0.068126	0.037653	0.996966	0.672450	-0.736457	0.073765	0.737000	0.675435	0.024852
11222		9.609520	0.739730	0.151895	0.003855	0.015846	0.001417	1.000000	0.000048	0.000198	0.000018	-0.068084	0.037547	0.996973	0.672854	-0.736098	0.073672	0.736636	0.675833	0.024852
11223		9.594365	0.729241	0.176659	-0.005670	0.016635	0.002864	1.000000	-0.000071	0.000208	0.000036	-0.067962	0.037354	0.996988	0.673334	-0.735680	0.073463	0.736208	0.676299	0.024846
11224		9.587988	0.708179	0.175900	0.001339	0.019687	0.003869	1.000000	0.000017	0.000246	0.000048	-0.067930	0.037086	0.997001	0.673978	-0.735110	0.073266	0.735622	0.676933	0.024941
11225		9.626156	0.721370	0.187516	0.010834	0.018044	0.006841	1.000000	0.000135	0.000226	0.000086	-0.067822	0.036875	0.997016	0.674209	-0.734919	0.073044	0.735420	0.677151	0.024982
11226		9.578735	0.795534	0.211846	-0.006478	0.018228	0.006542	1.000000	-0.000081	0.000228	0.000082	-0.067711	0.036650	0.997032	0.674231	-0.734924	0.072804	0.735410	0.677159	0.025052
11227		9.557456	0.766131	0.187313	-0.007653	0.018376	0.002266	1.000000	-0.000096	0.000230	0.000028	-0.067682	0.036481	0.997040	0.674320	-0.734856	0.072663	0.735332	0.677241	0.025136
11228		9.594902	0.727824	0.109149	-0.008488	0.016026	0.001327	1.000000	-0.000106	0.000200	0.000017	-0.067648	0.036436	0.997044	0.674025	-0.735133	0.072597	0.735605	0.676943	0.025172
11229		9.630689	0.726528	0.203472	0.004817	0.021578	-0.000701	1.000000	0.000060	0.000270	-0.000009	-0.067753	0.036309	0.997041	0.673981	-0.735175	0.072573	0.735635	0.676904	0.025339
11230		9.585321	0.698079	0.226402	0.003355	0.022721	0.004648	1.000000	0.000042	0.000284	0.000058	-0.067749	0.036068	0.997050	0.674066	-0.735115	0.072395	0.735558	0.676982	0.025492
11231		9.601366	0.699518	0.180172	-0.013184	0.015765	0.010575	1.000000	-0.000165	0.000197	0.000132	-0.067496	0.035837	0.997076	0.673890	-0.735310	0.072047	0.735742	0.676783	0.025481
11232		9.559040	0.711710	0.142123	-0.003532	0.019113	0.010581	1.000000	-0.000044	0.000239	0.000132	-0.067346	0.035512	0.997097	0.674058	-0.735190	0.071712	0.735602	0.676931	0.025575
11233		9.596452	0.730556	0.184314	0.013178	0.020917	0.008220	1.000000	0.000165	0.000261	0.000103	-0.067212	0.035206	0.997117	0.674640	-0.734684	0.071414	0.735081	0.677495	0.025628
11234		9.586301	0.754807	0.230349	-0.000573	0.017668	0.002765	1.000000	-0.000007	0.000221	0.000035	-0.067138	0.035071	0.997127	0.674685	-0.734657	0.071267	0.735046	0.677532	0.025661
11235		9.604861	0.752526	0.219983	0.004792	0.019965	-0.000779	1.000000	0.000060	0.000250	-0.000010	-0.067182	0.034955	0.997128	0.674996	-0.734376	0.071222	0.734756	0.677843	0.025742
11236		9.592865	0.777378	0.199564	-0.016262	0.014669	-0.004949	1.000000	-0.000203	0.000183	-0.000062	-0.067183	0.034982	0.997127	0.675029	-0.734344	0.071244	0.734726	0.677876	0.025721
11237		9.578306	0.690546	0.178689	-0.003734	0.020310	-0.004932	1.000000	-0.000047	0.000254	-0.000062	-0.067314	0.034956	0.997119	0.675020	-0.734345	0.071314	0.734722	0.677876	0.025836
11238		9.608787	0.639812	0.125884	0.001306	0.017314	-0.000708	1.000000	0.000016	0.000216	-0.000009	-0.067300	0.034841	0.997124	0.675530	-0.733883	0.071237	0.734255	0.678381	0.025854
11239		9.611895	0.724681	0.219084	0.004218	0.018113	-0.002368	1.000000	0.000053	0.000226	-0.000030	-0.067325	0.034798	0.997124	0.675749	-0.733682	0.071230	0.734051	0.678601	0.025881
11240		9.588406	0.718758	0.240205	0.001001	0.020653	-0.001161	1.000000	0.000013	0.000258	-0.000015	-0.067377	0.034689	0.997124	0.675913	-0.733535	0.071191	0.733896	0.678765	0.025977
11241		9.589444	0.686886	0.147513	-0.008500	0.017601	0.001344	1.000000	-0.000106	0.000220	0.000017	-0.067337	0.034574	0.997131	0.675975	-0.733488	0.071082	0.733842	0.678822	0.026020
11242		9.609700	0.732425	0.152040	0.006946	0.019356	-0.002074	1.000000	0.000087	0.000242	-0.000026	-0.067420	0.034486	0.997129	0.676151	-0.733326	0.071080	0.733672	0.679002	0.026123
11243		9.608958	0.731314	0.201594	0.014057	0.022599	-0.004231	1.000000	0.000176	0.000282	-0.000053	-0.067576	0.034425	0.997120	0.676235	-0.733243	0.071144	0.733580	0.679095	0.026271
11244		9.589415	0.715483	0.184377	0.000264	0.020842	-0.000744	1.000000	0.000003	0.000261	-0.000009	-0.067666	0.034328	0.997117	0.676048	-0.733417	0.071127	0.733744	0.678912	0.026420
11245		9.602001	0.720548	0.191714	-0.004005	0.019043	-0.001484	1.000000	-0.000050	0.000238	-0.000019	-0.067663	0.034178	0.997123	0.676687	-0.732835	0.071038	0.733155	0.679547	0.026458
11246		9.608557	0.732385	0.216273	-0.000008	0.020339	-0.000096	1.000000	-0.000000	0.000254	-0.000001	-0.067702	0.034046	0.997125	0.676792	-0.732745	0.070971	0.733055	0.679651	0.026567
11247		9.589013	0.751842	0.206641	-0.008261	0.018837	-0.002164	1.000000	-0.000103	0.000235	-0.000027	-0.067776	0.034004	0.997121	0.676450	-0.733061	0.070978	0.733364	0.679313	0.026682
11248		9.578980	0.681642	0.170136	-0.003267	0.022777	-0.004619	1.000000	-0.000041	0.000285	-0.000058	-0.067921	0.033865	0.997116	0.676886	-0.732657	0.070991	0.732948	0.679755	0.026840
11249		9.621558	0.705569	0.181199	0.003934	0.019938	-0.004492	1.000000	0.000049	0.000249	-0.000056	-0.068042	0.033837	0.997108	0.676934	-0.732606	0.071054	0.732892	0.679812	0.026943
11250		9.629622	0.730319	0.213001	-0.002756	0.022174	-0.005997	1.000000	-0.000034	0.000277	-0.000075	-0.068201	0.033762	0.997100	0.677189	-0.732364	0.071117	0.732641	0.680076	0.027085
11251		9.551090	0.715674	0.263582	-0.006101	0.024507	-0.001618	1.000000	-0.000076	0.000306	-0.000020	-0.068342	0.033570	0.997097	0.677316	-0.732251	0.071077	0.732511	0.680207	0.027306
11252		9.577378	0.711498	0.147504	-0.008032	0.018477	-0.005731	1.000000	-0.000100	0.000231	-0.000072	-0.068411	0.033550	0.997093	0.677612	-0.731973	0.071121	0.732231	0.680507	0.027341
11253		9.604897	0.681499	0.185600	0.003396	0.021276	-0.005955	1.000000	0.000042	0.000266	-0.000074	-0.068606	0.033517	0.997081	0.677530	-0.732038	0.071226	0.732288	0.680439	0.027513
11254		9.614024	0.699850	0.187339	-0.000257	0.021419	-0.006711	1.000000	-0.000003	0.000268	-0.000084	-0.068783	0.033480	0.997070	0.677661	-0.731907	0.071325	0.732151	0.680581	0.027655
11255		9.629833	0.694108	0.201541	-0.001816	0.025547	-0.005374	1.000000	-0.000023	0.000319	-0.000067	-0.069030	0.033400	0.997055	0.677358	-0.732178	0.071423	0.732408	0.680294	0.027919
11256		9.611422	0.679353	0.251086	0.001433	0.022357	0.001982	1.000000	0.000018	0.000279	0.000025	-0.069117	0.033255	0.997054	0.676914	-0.732595	0.071359	0.732810	0.679852	0.028124
11257		9.589680	0.739189	0.213624	-0.010065	0.020200	0.000953	1.000000	-0.000126	0.000253	0.000012	-0.069127	0.033089	0.997059	0.677016	-0.732512	0.071248	0.732715	0.679950	0.028234
11258		9.606899	0.752489	0.219987	0.001230	0.024295	-0.001728	1.000000	0.000015	0.000304	-0.000022	-0.069297	0.032935	0.997052	0.676945	-0.732577	0.071248	0.732764	0.679887	0.028470
11259		9.581664	0.734325	0.234999	0.014037	0.024256	0.001569	1.000000	0.000175	0.000303	0.000020	-0.069317	0.032635	0.997061	0.678050	-0.731571	0.071084	0.731740	0.680984	0.028582
11260		9.593971	0.747460	0.228901	0.011924	0.026538	0.001312	1.000000	0.000149	0.000332	0.000016	-0.069443	0.032367	0.997061	0.678442	-0.731216	0.070989	0.731365	0.681378	0.028819
11261		9.584642	0.784697	0.282919	-0.000053	0.021894	-0.000077	1.000000	-0.000001	0.000274	-0.000001	-0.069497	0.032183	0.997063	0.678809	-0.730884	0.070906	0.731019	0.681743	0.028948
11262		9.598310	0.756595	0.238641	0.003803	0.025977	-0.006807	1.000000	0.000048	0.000325	-0.000085	-0.069787	0.032115	0.997045	0.678569	-0.731093	0.071045	0.731214	0.681522	0.029228
11263		9.615707	0.672724	0.207445	0.010569	0.026278	-0.003922	1.000000	0.000132	0.000328	-0.000049	-0.070013	0.031974	0.997033	0.678679	-0.730986	0.071100	0.731090	0.681643	0.029478
11264		9.602900	0.668105	0.210566	0.010157	0.023239	0.002682	1.000000	0.000127	0.000290	0.000034	-0.070069	0.031729	0.997037	0.679035	-0.730667	0.070972	0.730754	0.681997	0.029652
11265		9.610839	0.717982	0.265583	0.006919	0.025769	0.003856	1.000000	0.000086	0.000322	0.000048	-0.070161	0.031424	0.997041	0.679240	-0.730491	0.070821	0.730555	0.682198	0.029907
11266		9.622954	0.739990	0.245084	0.003191	0.024865	-0.003931	1.000000	0.000040	0.000311	-0.000049	-0.070386	0.031324	0.997028	0.678984	-0.730723	0.070891	0.730771	0.681956	0.030164
11267		9.609064	0.671552	0.262749	0.015195	0.026414	-0.004251	1.000000	0.000190	0.000330	-0.000053	-0.070637	0.031179	0.997015	0.679154	-0.730557	0.070963	0.730589	0.682139	0.030429
11268		9.597752	0.679163	0.272764	0.008941	0.023274	-0.000026	1.000000	0.000112	0.000291	-0.000000	-0.070766	0.031023	0.997010	0.679109	-0.730602	0.070935	0.730618	0.682098	0.030634
11269		9.605074	0.701376	0.238893	-0.004322	0.023258	-0.000762	1.000000	-0.000054	0.000291	-0.000010	-0.070845	0.030812	0.997011	0.679482	-0.730263	0.070851	0.730264	0.682471	0.030799
11270		9.606533	0.686099	0.228955	0.005221	0.023314	0.000795	1.000000	0.000065	0.000291	0.000010	-0.070939	0.030625	0.997010	0.679565	-0.730192	0.070782	0.730177	0.682555	0.030987
11271		9.601653	0.704747	0.258470	0.006076	0.022566	0.000012	1.000000	0.000076	0.000282	0.000000	-0.071002	0.030426	0.997012	0.680018	-0.729779	0.070698	0.729749	0.683006	0.031126
11272		9.595102	0.739067	0.303300	0.003087	0.021565	-0.002482	1.000000	0.000039	0.000270	-0.000031	-0.071116	0.030310	0.997007	0.680170	-0.729637	0.070698	0.729596	0.683163	0.031273
11273		9.588490	0.709778	0.251589	-0.015875	0.020897	-0.005978	1.000000	-0.000198	0.000261	-0.000075	-0.071269	0.030271	0.996998	0.679998	-0.729791	0.070767	0.729742	0.683000	0.031428
11274		9.615453	0.669506	0.238757	-0.008528	0.019959	-0.003197	1.000000	-0.000107	0.000249	-0.000040	-0.071374	0.030205	0.996992	0.679839	-0.729938	0.070784	0.729880	0.682846	0.031564
11275		9.655032	0.678661	0.287831	-0.000391	0.019025	0.003291	1.000000	-0.000005	0.000238	0.000041	-0.071313	0.030000	0.997003	0.680242	-0.729579	0.070609	0.729510	0.683239	0.031621
11276		9.545549	0.696949	0.311346	-0.005161	0.021004	0.004002	1.000000	-0.000065	0.000263	0.000050	-0.071278	0.029747	0.997013	0.680571	-0.729291	0.070414	0.729207	0.683557	0.031737
11277		9.595787	0.715208	0.260691	-0.005289	0.016578	-0.007260	1.000000	-0.000066	0.000207	-0.000091	-0.071359	0.029799	0.997005	0.680725	-0.729138	0.070515	0.729055	0.683718	0.031746
11278		9.638412	0.704246	0.263480	0.006250	0.017236	-0.007831	1.000000	0.000078	0.000215	-0.000098	-0.071470	0.029832	0.996996	0.681150	-0.728728	0.070634	0.728647	0.684153	0.031762
11279		9.612916	0.706125	0.313718	0.019039	0.018789	-0.004408	1.000000	0.000238	0.000235	-0.000055	-0.071566	0.029834	0.996990	0.681346	-0.728539	0.070709	0.728455	0.684355	0.031811
11280		9.610999	0.712749	0.281987	-0.002836	0.018908	-0.006248	1.000000	-0.000035	0.000236	-0.000078	-0.071670	0.029836	0.996982	0.681498	-0.728389	0.070789	0.728302	0.684514	0.031871
11281		9.623545	0.700276	0.251681	-0.010420	0.013188	-0.004491	1.000000	-0.000130	0.000165	-0.000056	-0.071669	0.029906	0.996980	0.681331	-0.728541	0.070832	0.728459	0.684350	0.031838
11282		9.566387	0.697297	0.246337	0.003895	0.012860	-0.003552	1.000000	0.000049	0.000161	-0.000044	-0.071655	0.029973	0.996979	0.681333	-0.728534	0.070872	0.728458	0.684353	0.031782
11283		9.643651	0.722297	0.302374	0.018033	0.016053	-0.006275	1.000000	0.000225	0.000201	-0.000078	-0.071708	0.030021	0.996974	0.681882	-0.728011	0.070967	0.727939	0.684907	0.031734
11284		9.595612	0.755451	0.331059	-0.008623	0.013381	-0.007592	1.000000	-0.000108	0.000167	-0.000095	-0.071731	0.030101	0.996970	0.682214	-0.727692	0.071055	0.727626	0.685243	0.031662
11285		9.611941	0.677175	0.261387	-0.011145	0.014120	-0.006916	1.000000	-0.000139	0.000177	-0.000086	-0.071795	0.030220	0.996961	0.681838	-0.728033	0.071170	0.727972	0.684875	0.031664
11286		9.621443	0.659699	0.253372	0.000374	0.010865	-0.004748	1.000000	0.000005	0.000136	-0.000059	-0.071769	0.030328	0.996960	0.681879	-0.727988	0.071233	0.727936	0.684918	0.031567
11287		9.598639	0.710652	0.272188	-0.002540	0.010808	-0.005953	1.000000	-0.000032	0.000135	-0.000074	-0.071729	0.030428	0.996960	0.682214	-0.727669	0.071293	0.727626	0.685254	0.031437
11288		9.615845	0.708504	0.305586	0.000194	0.014383	-0.008414	1.000000	0.000002	0.000180	-0.000105	-0.071823	0.030568	0.996949	0.682088	-0.727771	0.071454	0.727735	0.685139	0.031421
11289		9.620634	0.691023	0.284309	-0.007602	0.008368	-0.001880	1.000000	-0.000095	0.000105	-0.000023	-0.071713	0.030674	0.996954	0.681906	-0.727942	0.071448	0.727916	0.684952	0.031286
11290		9.607526	0.730580	0.277223	-0.005551	0.010755	0.000156	1.000000	-0.000069	0.000134	0.000002	-0.071588	0.030695	0.996962	0.681862	-0.727990	0.071376	0.727969	0.684900	0.031186
11291		9.608917	0.742315	0.286755	-0.007345	0.009708	0.000355	1.000000	-0.000092	0.000121	0.000004	-0.071434	0.030755	0.996971	0.681671	-0.728176	0.071306	0.728163	0.684700	0.031052
11292		9.590029	0.726028	0.266284	-0.009457	0.007965	-0.002924	1.000000	-0.000118	0.000100	-0.000037	-0.071303	0.030872	0.996977	0.681620	-0.728224	0.071299	0.728224	0.684643	0.030882
11293		9.615416	0.726151	0.222273	-0.008143	0.007373	-0.000577	1.000000	-0.000102	0.000092	-0.000007	-0.071123	0.030957	0.996987	0.681627	-0.728224	0.071237	0.728235	0.684640	0.030692
11294		9.599588	0.715720	0.244916	-0.008092	0.010747	0.003663	1.000000	-0.000101	0.000134	0.000046	-0.070942	0.030965	0.997000	0.681233	-0.728605	0.071102	0.728621	0.684234	0.030594
11295		9.607211	0.738384	0.274161	-0.018508	0.006655	0.002658	1.000000	-0.000231	0.000083	0.000033	-0.070638	0.030912	0.997023	0.681957	-0.727949	0.070885	0.727973	0.684934	0.030340
11296		9.576872	0.764164	0.265454	-0.025592	0.006487	-0.000872	1.000000	-0.000320	0.000081	-0.000011	-0.070431	0.031002	0.997035	0.681827	-0.728078	0.070804	0.728115	0.684792	0.030141
11297		9.588283	0.722243	0.255606	-0.017141	0.009036	-0.006335	1.000000	-0.000214	0.000113	-0.000079	-0.070384	0.031189	0.997032	0.681368	-0.728500	0.070889	0.728549	0.684335	0.030024
11298		9.619124	0.634946	0.238210	-0.000948	0.009870	-0.007146	1.000000	-0.000012	0.000123	-0.000089	-0.070356	0.031308	0.997030	0.681834	-0.728056	0.070976	0.728116	0.684803	0.029876
11299		9.612463	0.660200	0.228451	-0.008135	0.008113	-0.003416	1.000000	-0.000102	0.000101	-0.000043	-0.070236	0.031428	0.997035	0.681843	-0.728047	0.070981	0.728119	0.684807	0.029706
11300		9.646932	0.687561	0.233485	0.001025	0.012154	-0.003510	1.000000	0.000013	0.000152	-0.000044	-0.070178	0.031478	0.997038	0.682152	-0.727756	0.070991	0.727835	0.685113	0.029600
11301		9.573685	0.709235	0.255705	-0.000471	0.011055	0.002996	1.000000	-0.000006	0.000138	0.000037	-0.070021	0.031505	0.997048	0.681620	-0.728265	0.070881	0.728349	0.684571	0.029519
11302		9.575040	0.746504	0.221299	-0.005568	0.007571	0.000039	1.000000	-0.000070	0.000095	0.000000	-0.069847	0.031617	0.997057	0.681311	-0.728559	0.070830	0.728654	0.684253	0.029347
11303		9.585711	0.776073	0.227261	-0.004131	0.009314	-0.007709	1.000000	-0.000052	0.000116	-0.000096	-0.069821	0.031808	0.997052	0.681297	-0.728560	0.070952	0.728669	0.684243	0.029198
11304		9.624551	0.668341	0.243465	0.012990	0.011941	-0.007928	1.000000	0.000162	0.000149	-0.000099	-0.069850	0.031992	0.997044	0.681403	-0.728446	0.071110	0.728568	0.684356	0.029083
11305		9.627630	0.674885	0.223078	0.004665	0.012012	-0.002721	1.000000	0.000058	0.000150	-0.000034	-0.069800	0.032057	0.997046	0.681405	-0.728443	0.071124	0.728571	0.684356	0.029001
11306		9.618817	0.715585	0.295567	-0.005243	0.010593	0.000733	1.000000	-0.000066	0.000132	0.000009	-0.069691	0.032122	0.997051	0.680894	-0.728925	0.071076	0.729059	0.683840	0.028928
11307		9.582737	0.702978	0.245309	-0.003510	0.013869	-0.000648	1.000000	-0.000044	0.000173	-0.000008	-0.069624	0.032088	0.997057	0.681053	-0.728783	0.071011	0.728917	0.683993	0.028887
11308		9.569029	0.676908	0.186794	0.006456	0.011470	-0.002971	1.000000	0.000081	0.000143	-0.000037	-0.069550	0.032153	0.997060	0.681217	-0.728629	0.071015	0.728770	0.684154	0.028773
11309		9.623572	0.732872	0.221828	0.022127	0.012062	-0.005289	1.000000	0.000277	0.000151	-0.000066	-0.069531	0.032238	0.997059	0.681759	-0.728115	0.071086	0.728265	0.684697	0.028648
11310		9.613209	0.770959	0.273046	0.020234	0.016513	-0.000450	1.000000	0.000253	0.000206	-0.000006	-0.069495	0.032161	0.997064	0.682396	-0.727523	0.071030	0.727671	0.685329	0.028613
11311		9.605157	0.757254	0.301154	0.005622	0.013991	0.001977	1.000000	0.000070	0.000175	0.000025	-0.069359	0.032041	0.997077	0.683149	-0.726831	0.070879	0.726978	0.686068	0.028524
11312		9.608472	0.778802	0.251653	-0.007464	0.008850	0.004754	1.000000	-0.000093	0.000111	0.000059	-0.069121	0.032013	0.997095	0.683050	-0.726943	0.070690	0.727094	0.685951	0.028380
11313		9.596349	0.745662	0.229032	-0.014233	0.012546	0.004795	1.000000	-0.000178	0.000157	0.000060	-0.068920	0.031857	0.997113	0.683501	-0.726541	0.070455	0.726689	0.686384	0.028298
11314		9.597142	0.665084	0.230967	-0.016258	0.012489	-0.000031	1.000000	-0.000203	0.000156	-0.000000	-0.068804	0.031829	0.997122	0.683572	-0.726484	0.070358	0.726633	0.686446	0.028227
11315		9.623248	0.619988	0.194729	-0.003692	0.011333	0.005306	1.000000	-0.000046	0.000142	0.000066	-0.068578	0.031719	0.997141	0.683819	-0.726273	0.070132	0.726422	0.686674	0.028117
11316		9.611491	0.626805	0.267763	0.007179	0.011561	0.006464	1.000000	0.000090	0.000145	0.000081	-0.068344	0.031575	0.997162	0.684438	-0.725713	0.069890	0.725861	0.687272	0.027987
11317		9.612065	0.708611	0.293411	-0.002364	0.011485	0.004820	1.000000	-0.000030	0.000144	0.000060	-0.068142	0.031487	0.997179	0.684656	-0.725526	0.069695	0.725674	0.687474	0.027881
11318		9.581068	0.729459	0.197606	-0.014681	0.010807	0.001603	1.000000	-0.000184	0.000135	0.000020	-0.067966	0.031488	0.997191	0.684581	-0.725609	0.069571	0.725762	0.687386	0.027761
11319		9.591121	0.657643	0.210613	-0.005175	0.012270	-0.000828	1.000000	-0.000065	0.000153	-0.000010	-0.067862	0.031462	0.997199	0.685101	-0.725125	0.069501	0.725280	0.687898	0.027653
11320		9.597079	0.669327	0.233514	0.004502	0.011800	0.000465	1.000000	0.000056	0.000147	0.000006	-0.067779	0.031562	0.997201	0.684274	-0.725907	0.069485	0.726069	0.687068	0.027605
11321		9.600638	0.723275	0.294507	-0.001264	0.012626	-0.000681	1.000000	-0.000016	0.000158	-0.000009	-0.067682	0.031565	0.997207	0.684423	-0.725772	0.069426	0.725937	0.687211	0.027518
11322		9.609108	0.719229	0.235912	-0.003745	0.013264	-0.005744	1.000000	-0.000047	0.000166	-0.000072	-0.067706	0.031626	0.997204	0.684568	-0.725629	0.069493	0.725798	0.687359	0.027479
11323		9.606694	0.669525	0.202221	-0.003902	0.009894	-0.002664	1.000000	-0.000049	0.000124	-0.000033	-0.067607	0.031675	0.997209	0.685022	-0.725202	0.069477	0.725378	0.687808	0.027330
11324		9.593976	0.655982	0.216319	0.003875	0.010704	0.003364	1.000000	0.000048	0.000134	0.000042	-0.067436	0.031697	0.997220	0.684566	-0.725644	0.069358	0.725825	0.687340	0.027235
11325		9.630674	0.724183	0.273044	0.002836	0.013376	0.000410	1.000000	0.000035	0.000167	0.000005	-0.067323	0.031602	0.997231	0.685424	-0.724844	0.069243	0.725025	0.688187	0.027138
11326		9.606107	0.704610	0.218706	-0.006053	0.013004	-0.000071	1.000000	-0.000076	0.000163	-0.000001	-0.067212	0.031533	0.997240	0.685977	-0.724331	0.069137	0.724512	0.688731	0.027053
11327		9.590189	0.702438	0.227489	-0.005046	0.012754	0.005825	1.000000	-0.000063	0.000159	0.000073	-0.067020	0.031431	0.997256	0.685797	-0.724522	0.068924	0.724700	0.688535	0.027002
11328		9.577630	0.696184	0.227508	-0.006703	0.011164	0.005661	1.000000	-0.000084	0.000140	0.000071	-0.066794	0.031320	0.997275	0.686041	-0.724312	0.068696	0.724490	0.688760	0.026893
11329		9.603651	0.743758	0.265951	-0.005810	0.012753	0.002108	1.000000	-0.000073	0.000159	0.000026	-0.066688	0.031300	0.997283	0.685570	-0.724768	0.068591	0.724946	0.688282	0.026876
11330		9.610703	0.710428	0.229470	-0.018667	0.011634	-0.006795	1.000000	-0.000233	0.000145	-0.000085	-0.066689	0.031436	0.997278	0.685276	-0.725038	0.068679	0.725224	0.687991	0.026810
11331		9.609947	0.619948	0.224351	-0.005490	0.014737	-0.004215	1.000000	-0.000069	0.000184	-0.000053	-0.066684	0.031453	0.997278	0.685464	-0.724858	0.068695	0.725046	0.688180	0.026777
11332		9.638223	0.618031	0.239504	-0.004073	0.011270	0.000569	1.000000	-0.000051	0.000141	0.000007	-0.066519	0.031452	0.997289	0.685546	-0.724792	0.068584	0.724984	0.688250	0.026651
11333		9.567924	0.688697	0.231712	-0.010604	0.013127	0.002714	1.000000	-0.000133	0.000164	0.000034	-0.066382	0.031365	0.997301	0.685649	-0.724709	0.068430	0.724900	0.688341	0.026603
11334		9.576767	0.741250	0.239930	-0.004103	0.012660	-0.003509	1.000000	-0.000051	0.000158	-0.000044	-0.066324	0.031391	0.997304	0.686055	-0.724325	0.068423	0.724520	0.688744	0.026504
11335		9.604422	0.719045	0.195920	0.003277	0.009871	-0.010551	1.000000	0.000041	0.000123	-0.000132	-0.066381	0.031630	0.997293	0.686061	-0.724299	0.068637	0.724510	0.688760	0.026380
11336		9.611207	0.670245	0.188151	0.006226	0.014032	-0.007923	1.000000	0.000078	0.000175	-0.000099	-0.066469	0.031749	0.997283	0.686139	-0.724211	0.068787	0.724428	0.688847	0.026353
11337		9.594986	0.718682	0.278209	0.001327	0.013563	-0.002889	1.000000	0.000017	0.000170	-0.000036	-0.066460	0.031847	0.997281	0.685442	-0.724867	0.068827	0.725088	0.688153	0.026345
11338		9.608170	0.706131	0.247115	-0.008997	0.011156	-0.005501	1.000000	-0.000112	0.000139	-0.000069	-0.066402	0.031891	0.997283	0.686183	-0.724163	0.068845	0.724391	0.688891	0.026203
11339		9.594973	0.681279	0.188421	-0.005194	0.012803	-0.007823	1.000000	-0.000065	0.000160	-0.000098	-0.066436	0.031983	0.997278	0.686590	-0.723768	0.068951	0.724003	0.689302	0.026125
11340		9.612446	0.651642	0.199525	0.007768	0.013189	-0.003380	1.000000	0.000097	0.000165	-0.000042	-0.066404	0.032014	0.997279	0.686978	-0.723398	0.068965	0.723638	0.689688	0.026044
11341		9.628606	0.675901	0.255665	0.004484	0.012339	-0.006497	1.000000	0.000056	0.000154	-0.000081	-0.066415	0.032132	0.997275	0.687074	-0.723298	0.069061	0.723546	0.689788	0.025961
11342		9.600867	0.727329	0.262009	-0.000830	0.015633	-0.007324	1.000000	-0.000010	0.000195	-0.000092	-0.066515	0.032281	0.997263	0.686293	-0.724024	0.069210	0.724277	0.689019	0.026004
11343		9.587412	0.685564	0.232894	-0.000278	0.013459	-0.008734	1.000000	-0.000003	0.000168	-0.000109	-0.066571	0.032391	0.997256	0.686598	-0.723723	0.069340	0.723983	0.689330	0.025939
11344		9.605872	0.646489	0.192421	0.011757	0.013648	-0.004812	1.000000	0.000147	0.000171	-0.000060	-0.066581	0.032469	0.997253	0.686638	-0.723679	0.069405	0.723944	0.689372	0.025889
11345		9.591578	0.688111	0.252443	0.003971	0.015445	-0.003800	1.000000	0.000050	0.000193	-0.000047	-0.066611	0.032482	0.997250	0.686751	-0.723568	0.069439	0.723834	0.689488	0.025891
11346		9.604704	0.666891	0.236520	0.001714	0.015089	-0.003854	1.000000	0.000021	0.000189	-0.000048	-0.066622	0.032508	0.997249	0.686798	-0.723522	0.069468	0.723789	0.689536	0.025876
11347		9.607705	0.717341	0.210090	0.001129	0.011576	-0.003896	1.000000	0.000014	0.000145	-0.000049	-0.066562	0.032587	0.997250	0.686880	-0.723442	0.069486	0.723717	0.689616	0.025770
11348		9.594441	0.749103	0.217737	-0.000987	0.010677	-0.004302	1.000000	-0.000012	0.000133	-0.000054	-0.066508	0.032737	0.997249	0.686427	-0.723866	0.069541	0.724151	0.689164	0.025671
11349		9.591138	0.700625	0.250419	0.004700	0.015247	-0.004218	1.000000	0.000059	0.000191	-0.000053	-0.066514	0.032689	0.997250	0.687359	-0.722981	0.069544	0.723266	0.690094	0.025619
11350		9.615555	0.672575	0.230029	-0.004305	0.010661	-0.004536	1.000000	-0.000054	0.000133	-0.000057	-0.066440	0.032739	0.997253	0.688113	-0.722262	0.069555	0.722556	0.690844	0.025459
11351		9.599301	0.663421	0.252788	-0.001269	0.011760	-0.003602	1.000000	-0.000016	0.000147	-0.000045	-0.066406	0.032780	0.997254	0.688539	-0.721854	0.069577	0.722153	0.691268	0.025365
11352		9.631598	0.693248	0.201103	0.007562	0.012785	-0.004328	1.000000	0.000095	0.000160	-0.000054	-0.066407	0.032809	0.997253	0.689167	-0.721250	0.069620	0.721553	0.691897	0.025285
11353		9.598969	0.727030	0.223208	-0.002991	0.013975	-0.004915	1.000000	-0.000037	0.000175	-0.000061	-0.066441	0.032877	0.997249	0.689063	-0.721343	0.069689	0.721650	0.691797	0.025273
11354		9.549702	0.711738	0.235662	-0.005185	0.011395	-0.003778	1.000000	-0.000065	0.000142	-0.000047	-0.066356	0.032980	0.997251	0.688741	-0.721650	0.069694	0.721965	0.691472	0.025171
11355		9.595004	0.702333	0.193262	-0.007206	0.009014	-0.005831	1.000000	-0.000090	0.000113	-0.000073	-0.066293	0.033149	0.997249	0.688584	-0.721793	0.069767	0.722120	0.691315	0.025024
11356		9.605883	0.688540	0.206567	0.002106	0.013256	-0.009050	1.000000	0.000026	0.000166	-0.000113	-0.066359	0.033262	0.997241	0.689070	-0.721315	0.069911	0.721650	0.691808	0.024945
11357		9.633088	0.632451	0.221649	0.007937	0.015702	-0.009364	1.000000	0.000099	0.000196	-0.000117	-0.066492	0.033420	0.997227	0.688687	-0.721661	0.070105	0.722003	0.691439	0.024969
11358		9.635680	0.666217	0.224119	-0.002137	0.009328	-0.002947	1.000000	-0.000027	0.000117	-0.000037	-0.066383	0.033554	0.997230	0.688243	-0.722084	0.070111	0.722436	0.690991	0.024841
11359		9.600049	0.720070	0.225172	-0.004692	0.013218	-0.002202	1.000000	-0.000059	0.000165	-0.000028	-0.066319	0.033516	0.997235	0.688856	-0.721505	0.070060	0.721858	0.691598	0.024762
11360		9.556573	0.694275	0.198984	0.004333	0.013062	-0.002026	1.000000	0.000054	0.000163	-0.000025	-0.066264	0.033426	0.997242	0.690322	-0.720108	0.070007	0.720462	0.693057	0.024643
11361		9.613445	0.707903	0.197010	0.007105	0.010309	-0.004668	1.000000	0.000089	0.000129	-0.000058	-0.066201	0.033474	0.997245	0.691410	-0.719060	0.070034	0.719423	0.694141	0.024458
11362		9.603044	0.719406	0.225599	0.009545	0.016543	-0.006361	1.000000	0.000119	0.000207	-0.000080	-0.066284	0.033524	0.997237	0.691512	-0.718953	0.070132	0.719318	0.694250	0.024473
11363		9.589428	0.742909	0.248271	0.002584	0.011174	-0.004737	1.000000	0.000032	0.000140	-0.000059	-0.066228	0.033686	0.997236	0.690913	-0.719522	0.070190	0.719897	0.693652	0.024378
11364		9.614234	0.723421	0.213267	-0.008198	0.012800	-0.003395	1.000000	-0.000102	0.000160	-0.000042	-0.066204	0.033810	0.997233	0.689970	-0.720423	0.070230	0.720804	0.692711	0.024367
11365		9.595416	0.690328	0.222281	0.005062	0.012864	-0.002443	1.000000	0.000063	0.000161	-0.000031	-0.066174	0.033879	0.997233	0.689753	-0.720628	0.070252	0.721014	0.692494	0.024319
11366		9.603176	0.687177	0.229940	0.001516	0.013290	-0.000736	1.000000	0.000019	0.000166	-0.000009	-0.066094	0.033785	0.997241	0.690865	-0.719571	0.070166	0.719956	0.693597	0.024219
11367		9.597387	0.676015	0.212919	-0.003087	0.012279	-0.003394	1.000000	-0.000039	0.000153	-0.000042	-0.066050	0.033832	0.997243	0.690996	-0.719444	0.070174	0.719835	0.693726	0.024142
11368		9.598539	0.688215	0.222891	0.005618	0.012470	0.000336	1.000000	0.000070	0.000156	0.000004	-0.065972	0.033820	0.997248	0.691113	-0.719338	0.070115	0.719730	0.693836	0.024083
11369		9.595032	0.691686	0.234299	0.002715	0.012405	-0.000909	1.000000	0.000034	0.000155	-0.000011	-0.065871	0.033790	0.997256	0.691767	-0.718715	0.070045	0.719110	0.694483	0.023968
11370		9.590745	0.701160	0.209610	0.000315	0.012392	-0.004754	1.000000	0.000004	0.000155	-0.000059	-0.065852	0.033826	0.997256	0.692411	-0.718091	0.070079	0.718491	0.695126	0.023866
11371		9.604101	0.680067	0.193099	0.005610	0.012269	-0.003801	1.000000	0.000070	0.000153	-0.000048	-0.065833	0.033876	0.997255	0.692695	-0.717815	0.070111	0.718220	0.695409	0.023790
11372		9.611342	0.659686	0.229707	0.004874	0.012660	0.000743	1.000000	0.000061	0.000158	0.000009	-0.065710	0.033836	0.997265	0.693141	-0.717394	0.070011	0.717801	0.695846	0.023687
11373		9.586293	0.741584	0.234635	-0.007169	0.010131	-0.000443	1.000000	-0.000090	0.000127	-0.000006	-0.065591	0.033886	0.997271	0.692922	-0.717611	0.069958	0.718023	0.695619	0.023588
11374		9.599718	0.719708	0.218072	-0.001991	0.012871	-0.001931	1.000000	-0.000025	0.000161	-0.000024	-0.065575	0.033831	0.997274	0.693864	-0.716702	0.069938	0.717114	0.696558	0.023524
11375		9.581185	0.695106	0.212214	-0.006667	0.010181	-0.003044	1.000000	-0.000083	0.000127	-0.000038	-0.065472	0.033951	0.997277	0.693478	-0.717075	0.069940	0.717497	0.696168	0.023404
11376		9.603720	0.651930	0.163043	-0.000285	0.012039	-0.004699	1.000000	-0.000004	0.000150	-0.000059	-0.065437	0.034018	0.997277	0.693795	-0.716765	0.069973	0.717193	0.696485	0.023302
11377		9.615851	0.649013	0.183922	0.008208	0.014993	-0.001806	1.000000	0.000103	0.000187	-0.000023	-0.065422	0.033969	0.997279	0.694344	-0.716236	0.069945	0.716663	0.697031	0.023271
11378		9.591167	0.687507	0.195927	0.001500	0.013082	-0.004883	1.000000	0.000019	0.000164	-0.000061	-0.065434	0.034033	0.997276	0.694480	-0.716098	0.070004	0.716530	0.697169	0.023222
11379		9.606609	0.711645	0.252396	0.007570	0.013705	-0.003041	1.000000	0.000095	0.000171	-0.000038	-0.065402	0.034022	0.997279	0.695193	-0.715407	0.069997	0.715842	0.697879	0.023137
11380		9.577640	0.720057	0.206947	-0.000108	0.012430	-0.003763	1.000000	-0.000001	0.000155	-0.000047	-0.065354	0.034130	0.997278	0.694628	-0.715954	0.070022	0.716395	0.697313	0.023083
11381		9.562262	0.706498	0.141967	0.001368	0.012042	-0.004584	1.000000	0.000017	0.000151	-0.000057	-0.065316	0.034236	0.997277	0.694403	-0.716167	0.070065	0.716616	0.697089	0.023004
11382		9.582758	0.695380	0.203487	0.006183	0.013989	-0.007954	1.000000	0.000077	0.000175	-0.000099	-0.065383	0.034368	0.997268	0.694290	-0.716263	0.070203	0.716719	0.696983	0.022970
11383		9.621753	0.679610	0.229847	0.011747	0.014362	-0.007646	1.000000	0.000147	0.000180	-0.000096	-0.065467	0.034421	0.997261	0.695107	-0.715458	0.070326	0.715919	0.697807	0.022913
11384		9.622457	0.684282	0.254671	0.000015	0.013461	-0.004075	1.000000	0.000000	0.000168	-0.000051	-0.065451	0.034428	0.997262	0.695687	-0.714893	0.070339	0.715357	0.698386	0.022839
11385		9.624149	0.713908	0.235649	-0.008117	0.011495	-0.000956	1.000000	-0.000101	0.000144	-0.000012	-0.065395	0.034454	0.997264	0.695515	-0.715063	0.070312	0.715530	0.698210	0.022798
11386		9.564444	0.691611	0.178177	-0.006656	0.012685	-0.001731	1.000000	-0.000083	0.000159	-0.000022	-0.065345	0.034486	0.997267	0.695252	-0.715320	0.070292	0.715789	0.697945	0.022766
11387		9.568968	0.701264	0.179854	0.006322	0.013442	-0.008307	1.000000	0.000079	0.000168	-0.000104	-0.065375	0.034583	0.997261	0.695800	-0.714777	0.070400	0.715254	0.698497	0.022666
11388		9.613469	0.697260	0.226054	0.015215	0.012259	-0.007789	1.000000	0.000190	0.000153	-0.000097	-0.065359	0.034721	0.997258	0.696178	-0.714399	0.070500	0.714888	0.698876	0.022520
11389		9.601975	0.705523	0.232781	-0.007163	0.012430	-0.003276	1.000000	-0.000090	0.000155	-0.000041	-0.065315	0.034728	0.997260	0.696642	-0.713948	0.070488	0.714440	0.699337	0.022439
11390		9.577147	0.705456	0.214710	-0.006818	0.010505	-0.006864	1.000000	-0.000085	0.000131	-0.000086	-0.065272	0.034913	0.997257	0.696174	-0.714395	0.070576	0.714900	0.698871	0.022324
11391		9.571802	0.703996	0.182486	-0.004551	0.009285	-0.006844	1.000000	-0.000057	0.000116	-0.000086	-0.065264	0.035075	0.997251	0.696221	-0.714338	0.070688	0.714854	0.698921	0.022201
11392		9.590092	0.678446	0.215180	0.002772	0.013662	-0.010752	1.000000	0.000035	0.000171	-0.000134	-0.065378	0.035222	0.997239	0.696560	-0.713988	0.070884	0.714514	0.699271	0.022145
11393		9.620041	0.654687	0.229639	0.002473	0.010853	-0.007300	1.000000	0.000031	0.000136	-0.000091	-0.065316	0.035447	0.997235	0.695837	-0.714684	0.070979	0.715224	0.698549	0.022015
11394		9.594690	0.699368	0.204935	-0.000086	0.013153	-0.006626	1.000000	-0.000001	0.000164	-0.000083	-0.065376	0.035518	0.997228	0.696222	-0.714298	0.071083	0.714843	0.698940	0.021970
11395		9.587838	0.716245	0.210173	-0.004845	0.010363	-0.006153	1.000000	-0.000061	0.000130	-0.000077	-0.065340	0.035719	0.997224	0.695392	-0.715097	0.071177	0.715654	0.698112	0.021886
11396		9.577556	0.697438	0.194114	-0.016538	0.010189	-0.005446	1.000000	-0.000207	0.000127	-0.000068	-0.065313	0.035838	0.997221	0.695227	-0.715251	0.071238	0.715817	0.697948	0.021800
11397		9.583335	0.667031	0.223584	-0.004199	0.011247	-0.013195	1.000000	-0.000052	0.000141	-0.000165	-0.065413	0.036054	0.997207	0.695607	-0.714858	0.071475	0.715438	0.698339	0.021682
11398		9.604381	0.596980	0.196796	0.012944	0.013283	-0.011936	1.000000	0.000162	0.000166	-0.000149	-0.065522	0.036284	0.997191	0.695363	-0.715072	0.071709	0.715665	0.698109	0.021622
11399		9.615301	0.645612	0.174627	0.018753	0.011844	-0.009468	1.000000	0.000234	0.000148	-0.000118	-0.065593	0.036413	0.997182	0.696278	-0.714164	0.071879	0.714769	0.699030	0.021491
11400		9.599505	0.741245	0.212309	0.017738	0.011540	-0.008410	1.000000	0.000222	0.000144	-0.000105	-0.065635	0.036600	0.997172	0.696254	-0.714171	0.072041	0.714788	0.699014	0.021392
11401		9.582521	0.825078	0.242942	0.001317	0.010881	-0.010039	1.000000	0.000016	0.000136	-0.000125	-0.065681	0.036800	0.997162	0.696333	-0.714076	0.072219	0.714707	0.699100	0.021276
11402		9.566960	0.756743	0.177132	-0.006499	0.010135	-0.010435	1.000000	-0.000081	0.000127	-0.000130	-0.065737	0.037026	0.997150	0.696123	-0.714262	0.072414	0.714907	0.698899	0.021178
11403		9.595986	0.682828	0.154793	0.002148	0.010784	-0.012046	1.000000	0.000027	0.000135	-0.000151	-0.065813	0.037313	0.997134	0.695561	-0.714783	0.072656	0.715446	0.698350	0.021089
11404		9.590764	0.668207	0.173355	0.005124	0.011156	-0.008247	1.000000	0.000064	0.000139	-0.000103	-0.065830	0.037492	0.997126	0.695516	-0.714813	0.072795	0.715488	0.698310	0.020980
11405		9.603571	0.717054	0.230254	0.005350	0.010914	-0.006056	1.000000	0.000067	0.000136	-0.000076	-0.065810	0.037611	0.997123	0.695742	-0.714586	0.072872	0.715271	0.698536	0.020860
11406		9.629400	0.754670	0.195664	-0.007983	0.010512	-0.009630	1.000000	-0.000100	0.000131	-0.000120	-0.065869	0.037844	0.997110	0.695190	-0.715103	0.073065	0.715802	0.697993	0.020794
11407		9.573942	0.725085	0.165622	-0.004362	0.014483	-0.007401	1.000000	-0.000055	0.000181	-0.000093	-0.065921	0.037898	0.997105	0.695545	-0.714749	0.073151	0.715452	0.698353	0.020757
11408		9.548097	0.713799	0.140507	-0.005538	0.009693	-0.008662	1.000000	-0.000069	0.000121	-0.000108	-0.065889	0.038092	0.997100	0.695565	-0.714718	0.073267	0.715436	0.698375	0.020596
11409		9.589138	0.722774	0.180396	-0.000189	0.010116	-0.014666	1.000000	-0.000002	0.000126	-0.000183	-0.066017	0.038390	0.997080	0.695530	-0.714721	0.073570	0.715458	0.698355	0.020482
11410		9.624011	0.703473	0.229691	0.012400	0.014599	-0.013443	1.000000	0.000155	0.000182	-0.000168	-0.066183	0.038619	0.997060	0.695417	-0.714802	0.073847	0.715553	0.698259	0.020452
11411		9.611661	0.709686	0.215084	-0.005265	0.012694	-0.007990	1.000000	-0.000066	0.000159	-0.000100	-0.066230	0.038732	0.997052	0.695499	-0.714710	0.073963	0.715468	0.698348	0.020397
11412		9.635593	0.656660	0.239355	-0.002565	0.016460	-0.006296	1.000000	-0.000032	0.000206	-0.000079	-0.066332	0.038709	0.997046	0.696098	-0.714119	0.074035	0.714876	0.698953	0.020423
11413		9.593157	0.591616	0.184089	0.004273	0.018994	0.001894	1.000000	0.000053	0.000237	0.000024	-0.066329	0.038581	0.997052	0.695830	-0.714391	0.073934	0.715137	0.698682	0.020539
11414		9.576903	0.656654	0.120949	0.016619	0.012295	-0.000304	1.000000	0.000208	0.000154	-0.000004	-0.066261	0.038557	0.997057	0.696429	-0.713812	0.073886	0.714560	0.699275	0.020445
11415		9.582334	0.806574	0.224830	0.022512	0.013701	-0.007617	1.000000	0.000281	0.000171	-0.000095	-0.066297	0.038724	0.997048	0.696117	-0.714103	0.074022	0.714861	0.698969	0.020387
11416		9.574280	0.812005	0.223264	0.015713	0.015759	-0.007759	1.000000	0.000196	0.000197	-0.000097	-0.066386	0.038868	0.997037	0.695595	-0.714595	0.074173	0.715361	0.698458	0.020403
11417		9.569624	0.771677	0.161948	0.011781	0.010560	-0.006487	1.000000	0.000147	0.000132	-0.000081	-0.066380	0.039004	0.997032	0.695853	-0.714333	0.074273	0.715110	0.698718	0.020277
11418		9.582939	0.790275	0.174279	0.005477	0.007846	-0.007749	1.000000	0.000068	0.000098	-0.000097	-0.066378	0.039211	0.997024	0.696006	-0.714169	0.074424	0.714961	0.698875	0.020114
11419		9.590515	0.789186	0.181192	0.006633	0.011483	-0.011931	1.000000	0.000083	0.000144	-0.000149	-0.066465	0.039439	0.997009	0.696059	-0.714093	0.074650	0.714901	0.698939	0.020011
11420		9.587394	0.750571	0.199052	0.002141	0.011905	-0.006646	1.000000	0.000027	0.000149	-0.000083	-0.066482	0.039562	0.997003	0.696103	-0.714039	0.074751	0.714857	0.698987	0.019931
11421		9.592976	0.724888	0.192143	-0.004973	0.007713	-0.005943	1.000000	-0.000062	0.000096	-0.000074	-0.066416	0.039767	0.996999	0.695759	-0.714366	0.074842	0.715199	0.698641	0.019777
11422		9.590513	0.754719	0.159211	-0.008454	0.010949	-0.000390	1.000000	-0.000106	0.000137	-0.000005	-0.066291	0.039768	0.997007	0.695891	-0.714246	0.074760	0.715081	0.698764	0.019674
11423		9.578990	0.762426	0.165529	-0.003395	0.009936	-0.007025	1.000000	-0.000042	0.000124	-0.000088	-0.066299	0.039920	0.997001	0.695961	-0.714165	0.074875	0.715012	0.698838	0.019566
11424		9.570588	0.759008	0.177679	-0.004433	0.008696	-0.007256	1.000000	-0.000055	0.000109	-0.000091	-0.066260	0.040091	0.996997	0.696041	-0.714077	0.074973	0.714938	0.698918	0.019410
11425		9.597605	0.698981	0.170917	-0.001493	0.010652	-0.003407	1.000000	-0.000019	0.000133	-0.000043	-0.066176	0.040210	0.996997	0.695600	-0.714505	0.074987	0.715375	0.698473	0.019313
11426		9.628423	0.738820	0.171097	-0.006904	0.009716	-0.004096	1.000000	-0.000086	0.000121	-0.000051	-0.066133	0.040335	0.996995	0.695342	-0.714750	0.075040	0.715630	0.698215	0.019222
11427		9.577159	0.741416	0.219121	-0.009329	0.011465	-0.003787	1.000000	-0.000117	0.000143	-0.000047	-0.066064	0.040426	0.996996	0.695028	-0.715055	0.075049	0.715941	0.697899	0.019142
11428		9.593238	0.696323	0.201563	-0.006237	0.007855	-0.002943	1.000000	-0.000078	0.000098	-0.000037	-0.065945	0.040567	0.996998	0.694774	-0.715301	0.075060	0.716198	0.697638	0.018986
11429		9.597078	0.707072	0.144600	0.000013	0.009842	0.001178	1.000000	0.000000	0.000123	0.000015	-0.065762	0.040565	0.997010	0.694956	-0.715137	0.074935	0.716038	0.697807	0.018838
11430		9.580387	0.744517	0.181533	-0.004609	0.009443	-0.002772	1.000000	-0.000058	0.000118	-0.000035	-0.065651	0.040644	0.997015	0.695057	-0.715040	0.074917	0.715951	0.697901	0.018693
11431		9.574624	0.725369	0.178289	0.001246	0.010122	-0.007224	1.000000	0.000016	0.000127	-0.000090	-0.065648	0.040764	0.997010	0.695535	-0.714566	0.075014	0.715487	0.698379	0.018557
11432		9.580722	0.708117	0.156776	0.004359	0.009964	-0.003757	1.000000	0.000054	0.000125	-0.000047	-0.065569	0.040875	0.997011	0.695530	-0.714568	0.075037	0.715499	0.698370	0.018424
11433		9.630310	0.729094	0.172631	0.009890	0.011933	-0.003372	1.000000	0.000124	0.000149	-0.000042	-0.065558	0.040947	0.997008	0.695570	-0.714525	0.075082	0.715461	0.698411	0.018361
11434		9.595500	0.741339	0.201174	0.001878	0.013494	0.000729	1.000000	0.000023	0.000169	0.000009	-0.065466	0.040913	0.997016	0.695541	-0.714562	0.074993	0.715498	0.698374	0.018323
11435		9.543949	0.758686	0.140979	-0.012623	0.011001	0.001321	1.000000	-0.000158	0.000138	0.000017	-0.065298	0.040885	0.997028	0.695559	-0.714559	0.074856	0.715496	0.698379	0.018222
11436		9.569259	0.772323	0.171902	-0.002265	0.009898	-0.004301	1.000000	-0.000028	0.000124	-0.000054	-0.065265	0.040988	0.997026	0.695634	-0.714480	0.074909	0.715425	0.698454	0.018117
11437		9.596382	0.711885	0.165632	0.010623	0.014252	-0.002445	1.000000	0.000133	0.000178	-0.000031	-0.065241	0.041002	0.997027	0.695724	-0.714393	0.074904	0.715340	0.698543	0.018082
11438		9.609898	0.681957	0.164270	0.005212	0.013313	-0.003144	1.000000	0.000065	0.000166	-0.000039	-0.065201	0.041061	0.997027	0.695512	-0.714599	0.074914	0.715550	0.698328	0.018034
11439		9.606716	0.688596	0.197438	-0.000306	0.013429	0.003189	1.000000	-0.000004	0.000168	0.000040	-0.065054	0.041004	0.997039	0.695220	-0.714898	0.074762	0.715847	0.698025	0.018000
11440		9.606515	0.734938	0.215168	0.005107	0.010491	0.006665	1.000000	0.000064	0.000131	0.000083	-0.064833	0.040872	0.997059	0.695783	-0.714375	0.074527	0.715320	0.698569	0.017877
11441		9.548830	0.775125	0.142442	-0.002534	0.014001	0.004397	1.000000	-0.000032	0.000175	0.000055	-0.064672	0.040764	0.997074	0.695671	-0.714505	0.074334	0.715444	0.698442	0.017850
11442		9.585815	0.733523	0.155369	0.009383	0.012818	0.000521	1.000000	0.000117	0.000160	0.000007	-0.064565	0.040750	0.997081	0.695690	-0.714494	0.074249	0.715434	0.698454	0.017782
11443		9.582662	0.744775	0.152038	0.001593	0.011633	0.005480	1.000000	0.000020	0.000145	0.000069	-0.064394	0.040626	0.997097	0.696091	-0.714124	0.074051	0.715060	0.698839	0.017705
11444		9.601938	0.727585	0.192642	0.003971	0.016477	0.007866	1.000000	0.000050	0.000206	0.000098	-0.064203	0.040410	0.997118	0.696118	-0.714128	0.073764	0.715051	0.698848	0.017719
11445		9.562093	0.725897	0.201249	-0.006147	0.011176	0.007583	1.000000	-0.000077	0.000140	0.000095	-0.063958	0.040274	0.997140	0.696177	-0.714098	0.073495	0.715015	0.698886	0.017634
11446		9.592390	0.709043	0.143918	-0.006939	0.012000	0.006731	1.000000	-0.000087	0.000150	0.000084	-0.063756	0.040137	0.997158	0.696256	-0.714046	0.073258	0.714957	0.698947	0.017579
11447		9.602403	0.680197	0.151003	0.000666	0.013932	0.006262	1.000000	0.000008	0.000174	0.000078	-0.063562	0.039981	0.997177	0.696392	-0.713937	0.073014	0.714841	0.699067	0.017537
11448		9.595038	0.680566	0.207260	-0.000633	0.013564	0.002578	1.000000	-0.000008	0.000170	0.000032	-0.063431	0.039907	0.997188	0.696372	-0.713972	0.072869	0.714872	0.699036	0.017498
11449		9.570300	0.674777	0.167468	-0.003361	0.012519	0.006348	1.000000	-0.000042	0.000156	0.000079	-0.063277	0.039732	0.997205	0.696956	-0.713424	0.072650	0.714316	0.699605	0.017452
11450		9.582862	0.683538	0.137525	-0.000616	0.010627	0.006646	1.000000	-0.000008	0.000133	0.000083	-0.063043	0.039613	0.997224	0.697210	-0.713201	0.072407	0.714089	0.699840	0.017344
11451		9.588935	0.706249	0.167618	0.003522	0.013493	0.000853	1.000000	0.000044	0.000169	0.000011	-0.062962	0.039548	0.997232	0.697516	-0.712911	0.072312	0.713798	0.700138	0.017301
11452		9.590407	0.726520	0.163107	0.002487	0.012254	0.000620	1.000000	0.000031	0.000153	0.000008	-0.062858	0.039545	0.997239	0.697419	-0.713014	0.072234	0.713901	0.700034	0.017240
11453		9.594025	0.723240	0.157487	-0.000098	0.011096	-0.001351	1.000000	-0.000001	0.000139	-0.000017	-0.062737	0.039574	0.997245	0.697517	-0.712924	0.072172	0.713817	0.700123	0.017123
11454		9.585606	0.718822	0.170282	-0.000540	0.014078	-0.004423	1.000000	-0.000007	0.000176	-0.000055	-0.062728	0.039625	0.997244	0.697361	-0.713074	0.072199	0.713969	0.699968	0.017097
11455		9.586264	0.680888	0.144035	0.000399	0.012711	-0.003917	1.000000	0.000005	0.000159	-0.000049	-0.062699	0.039674	0.997244	0.697438	-0.712998	0.072215	0.713897	0.700043	0.017034
11456		9.598017	0.678020	0.164898	-0.000421	0.011236	-0.001953	1.000000	-0.000005	0.000140	-0.000024	-0.062592	0.039724	0.997248	0.697385	-0.713053	0.072174	0.713958	0.699983	0.016929
11457		9.589546	0.725878	0.156529	-0.008966	0.014117	0.000608	1.000000	-0.000112	0.000176	0.000008	-0.062562	0.039664	0.997253	0.697354	-0.713091	0.072110	0.713992	0.699949	0.016953
11458		9.578677	0.688537	0.170385	-0.005280	0.014730	-0.001365	1.000000	-0.000066	0.000184	-0.000017	-0.062525	0.039632	0.997256	0.697324	-0.713125	0.072061	0.714024	0.699916	0.016952
11459		9.608891	0.668143	0.149886	-0.009092	0.013082	0.000914	1.000000	-0.000114	0.000164	0.000011	-0.062423	0.039622	0.997263	0.696820	-0.713626	0.071970	0.714524	0.699406	0.016937
11460		9.610716	0.692139	0.167310	-0.002626	0.014106	-0.003570	1.000000	-0.000033	0.000176	-0.000045	-0.062427	0.039613	0.997263	0.697175	-0.713279	0.071975	0.714178	0.699760	0.016911
11461		9.588880	0.671418	0.170201	0.002201	0.016052	-0.006906	1.000000	0.000028	0.000201	-0.000086	-0.062529	0.039660	0.997255	0.697242	-0.713203	0.072081	0.714104	0.699835	0.016944
11462		9.548662	0.674876	0.121036	-0.009051	0.012870	-0.003236	1.000000	-0.000113	0.000161	-0.000040	-0.062528	0.039697	0.997253	0.697096	-0.713343	0.072104	0.714246	0.699690	0.016931
11463		9.570587	0.700920	0.146609	0.000832	0.013594	-0.003632	1.000000	0.000010	0.000170	-0.000045	-0.062506	0.039719	0.997254	0.697260	-0.713182	0.072108	0.714088	0.699853	0.016883
11464		9.604889	0.679795	0.197072	0.007421	0.015650	-0.008422	1.000000	0.000093	0.000196	-0.000105	-0.062594	0.039817	0.997245	0.697202	-0.713225	0.072238	0.714136	0.699803	0.016883
11465		9.608354	0.628050	0.155826	0.006297	0.015679	-0.011167	1.000000	0.000079	0.000196	-0.000140	-0.062756	0.039916	0.997230	0.697699	-0.712720	0.072434	0.713637	0.700312	0.016878
11466		9.625808	0.651932	0.146773	0.008188	0.013461	-0.003463	1.000000	0.000102	0.000168	-0.000043	-0.062730	0.039944	0.997231	0.697898	-0.712524	0.072441	0.713444	0.700510	0.016820
11467		9.595294	0.723906	0.210513	0.001702	0.015365	-0.003064	1.000000	0.000021	0.000192	-0.000038	-0.062742	0.039981	0.997229	0.697362	-0.713047	0.072463	0.713968	0.699975	0.016857
11468		9.539088	0.725261	0.166365	0.004220	0.016219	-0.003632	1.000000	0.000053	0.000203	-0.000045	-0.062761	0.039986	0.997227	0.697185	-0.713218	0.072475	0.714138	0.699801	0.016884
11469		9.573942	0.714860	0.144526	0.004169	0.012471	-0.008787	1.000000	0.000052	0.000156	-0.000110	-0.062829	0.040138	0.997217	0.697168	-0.713220	0.072632	0.714150	0.699791	0.016829
11470		9.593257	0.709754	0.170636	0.013601	0.015752	-0.006854	1.000000	0.000170	0.000197	-0.000086	-0.062910	0.040202	0.997209	0.697256	-0.713122	0.072736	0.714056	0.699886	0.016831
11471		9.606073	0.724941	0.163297	0.013138	0.017368	-0.005826	1.000000	0.000164	0.000217	-0.000073	-0.063020	0.040207	0.997202	0.697485	-0.712890	0.072822	0.713823	0.700123	0.016883
11472		9.575480	0.746708	0.190613	-0.005813	0.012580	-0.005524	1.000000	-0.000073	0.000157	-0.000069	-0.063002	0.040300	0.997199	0.697242	-0.713123	0.072870	0.714062	0.699880	0.016829
11473		9.570163	0.732825	0.152163	-0.003438	0.014911	-0.004460	1.000000	-0.000043	0.000186	-0.000056	-0.062989	0.040356	0.997198	0.696780	-0.713572	0.072891	0.714514	0.699419	0.016828
11474		9.579071	0.695021	0.152911	0.001434	0.016223	-0.006535	1.000000	0.000018	0.000203	-0.000082	-0.063064	0.040389	0.997192	0.696845	-0.713500	0.072968	0.714444	0.699490	0.016851
11475		9.592632	0.665562	0.152305	-0.000561	0.014989	-0.003172	1.000000	-0.000007	0.000187	-0.000040	-0.063088	0.040410	0.997190	0.696611	-0.713726	0.072994	0.714670	0.699258	0.016878
11476		9.590775	0.696707	0.199646	-0.007264	0.012324	-0.003480	1.000000	-0.000091	0.000154	-0.000043	-0.063039	0.040456	0.997191	0.696521	-0.713814	0.072991	0.714762	0.699166	0.016819
11477		9.576444	0.721887	0.164463	-0.008486	0.017057	-0.006133	1.000000	-0.000106	0.000213	-0.000077	-0.063154	0.040450	0.997184	0.696636	-0.713694	0.073070	0.714640	0.699288	0.016894
11478		9.569872	0.691412	0.155551	-0.006818	0.013630	-0.008595	1.000000	-0.000085	0.000170	-0.000107	-0.063246	0.040567	0.997173	0.696536	-0.713776	0.073216	0.714729	0.699198	0.016887
11479		9.586070	0.644490	0.117775	-0.001782	0.015341	-0.009722	1.000000	-0.000022	0.000192	-0.000122	-0.063370	0.040670	0.997161	0.696587	-0.713710	0.073378	0.714668	0.699259	0.016898
11480		9.597785	0.646295	0.161172	0.007559	0.016030	-0.007493	1.000000	0.000094	0.000200	-0.000094	-0.063494	0.040700	0.997152	0.697040	-0.713255	0.073497	0.714215	0.699722	0.016918
11481		9.589342	0.699039	0.174689	0.004011	0.013935	-0.007167	1.000000	0.000050	0.000174	-0.000090	-0.063529	0.040778	0.997147	0.697216	-0.713075	0.073582	0.714041	0.699901	0.016870
11482		9.587574	0.733114	0.164229	0.001018	0.013757	-0.006865	1.000000	0.000013	0.000172	-0.000086	-0.063590	0.040861	0.997139	0.697262	-0.713019	0.073684	0.713990	0.699953	0.016851
11483		9.580474	0.750548	0.169620	0.002730	0.013562	-0.010862	1.000000	0.000034	0.000170	-0.000136	-0.063729	0.041027	0.997124	0.697251	-0.713007	0.073900	0.713988	0.699955	0.016833
11484		9.571740	0.691509	0.182531	-0.004457	0.015950	-0.007544	1.000000	-0.000056	0.000199	-0.000094	-0.063831	0.041093	0.997114	0.697105	-0.713138	0.074016	0.714122	0.699818	0.016874
11485		9.587368	0.688276	0.137913	-0.003868	0.011501	-0.006091	1.000000	-0.000048	0.000144	-0.000076	-0.063792	0.041219	0.997112	0.696838	-0.713393	0.074072	0.714386	0.699551	0.016786
11486		9.597400	0.722439	0.167151	0.005524	0.015843	-0.010794	1.000000	0.000069	0.000198	-0.000135	-0.063927	0.041334	0.997098	0.696962	-0.713253	0.074251	0.714253	0.699687	0.016788
11487		9.593230	0.724796	0.157564	0.006045	0.015466	-0.007993	1.000000	0.000076	0.000193	-0.000100	-0.064033	0.041407	0.997088	0.697096	-0.713109	0.074381	0.714113	0.699829	0.016798
11488		9.601584	0.735012	0.172946	0.003251	0.014117	-0.006779	1.000000	0.000041	0.000176	-0.000085	-0.064090	0.041486	0.997081	0.697134	-0.713062	0.074478	0.714070	0.699873	0.016779
11489		9.577545	0.738195	0.176555	-0.008790	0.016539	-0.005521	1.000000	-0.000110	0.000207	-0.000069	-0.064136	0.041527	0.997077	0.696629	-0.713550	0.074528	0.714559	0.699373	0.016836
