// Start Time: Unknown
// Update Rate: 40.0Hz
// Filter Profile: human (46.1)
// Firmware Version: 4.3.4
PacketCounter	SampleTimeFine	Acc_X	Acc_Y	Acc_Z	Gyr_X	Gyr_Y	Gyr_Z	OriInc_q0	OriInc_q1	OriInc_q2	OriInc_q3	Mat[1][1]	Mat[2][1]	Mat[3][1]	Mat[1][2]	Mat[2][2]	Mat[3][2]	Mat[1][3]	Mat[2][3]	Mat[3][3]
10839		9.621229	-1.623191	1.767448	0.059175	-0.110167	-0.063296	0.999998	0.000740	-0.001377	-0.000791	0.178397	-0.165743	0.969899	0.981902	0.093687	-0.164594	-0.063586	0.981709	0.179457
10840		10.037141	-1.884840	1.705057	0.062140	-0.133204	-0.119859	0.999997	0.000777	-0.001665	-0.001498	0.175238	-0.162755	0.970980	0.982331	0.094720	-0.161410	-0.065701	0.982109	0.176478
10841		10.620746	-2.157499	1.513380	0.059939	-0.106054	-0.152923	0.999997	0.000749	-0.001326	-0.001912	0.171306	-0.160448	0.972065	0.982896	0.095536	-0.157446	-0.067605	0.982410	0.174070
10842		10.527029	-2.111793	1.632080	0.036669	-0.068970	-0.175949	0.999997	0.000458	-0.000862	-0.002199	0.166894	-0.159066	0.973059	0.983574	0.095688	-0.153055	-0.068764	0.982620	0.172423
10843		10.213290	-1.796299	1.641394	0.038057	-0.092861	-0.236849	0.999995	0.000476	-0.001161	-0.002961	0.160996	-0.157236	0.974350	0.984466	0.095655	-0.147231	-0.070051	0.982918	0.170193
10844		10.282225	-1.744956	1.575572	0.048463	-0.051717	-0.331819	0.999991	0.000606	-0.000646	-0.004148	0.152858	-0.156597	0.975762	0.985665	0.095502	-0.139083	-0.071407	0.983034	0.168950
10845		10.175741	-1.691378	1.642325	0.084757	0.004393	-0.403187	0.999987	0.001059	0.000055	-0.005040	0.143094	-0.157404	0.977112	0.986983	0.095929	-0.129086	-0.073414	0.982864	0.169082
10846		9.790394	-1.491042	1.621718	0.132464	0.061740	-0.454923	0.999982	0.001656	0.000772	-0.005687	0.132214	-0.159762	0.978261	0.988271	0.097331	-0.117671	-0.076415	0.982346	0.170757
10847		9.594978	-1.564613	1.538693	0.169333	0.128517	-0.474387	0.999979	0.002117	0.001606	-0.005930	0.121054	-0.163775	0.979042	0.989408	0.099507	-0.105690	-0.080113	0.981466	0.174086
10848		9.550028	-1.556239	1.410684	0.218420	0.185361	-0.476444	0.999976	0.002730	0.002317	-0.005955	0.110062	-0.169262	0.979406	0.990290	0.102872	-0.093506	-0.084926	0.980188	0.178941
10849		9.497026	-1.578270	1.486131	0.242626	0.183270	-0.475154	0.999975	0.003033	0.002291	-0.005939	0.099311	-0.174637	0.979612	0.990944	0.106770	-0.081426	-0.090374	0.978827	0.183659
10850		9.567438	-1.549027	1.394857	0.285564	0.206209	-0.462460	0.999974	0.003570	0.002578	-0.005781	0.089029	-0.180416	0.979553	0.991305	0.111724	-0.069520	-0.096897	0.977224	0.188794
10851		9.734431	-1.500627	1.304206	0.340929	0.277152	-0.423575	0.999971	0.004262	0.003464	-0.005295	0.080327	-0.187830	0.978911	0.991263	0.118129	-0.058674	-0.104617	0.975072	0.195678
10852		9.992523	-1.407715	1.214666	0.417785	0.342464	-0.412429	0.999964	0.005222	0.004281	-0.005155	0.072217	-0.196697	0.977801	0.990828	0.126411	-0.047750	-0.114213	0.972281	0.204022
10853		10.120560	-1.451471	1.313424	0.507456	0.379704	-0.398742	0.999956	0.006343	0.004746	-0.004984	0.065005	-0.206134	0.976362	0.989901	0.136842	-0.037016	-0.125978	0.968908	0.212948
10854		10.070886	-1.287205	1.461834	0.557302	0.437075	-0.357048	0.999951	0.006966	0.005463	-0.004463	0.059311	-0.216650	0.974446	0.988521	0.148632	-0.027122	-0.138958	0.964869	0.222978
10855		9.764067	-1.082474	1.541040	0.556958	0.501243	-0.294404	0.999949	0.006962	0.006265	-0.003680	0.055613	-0.228458	0.971964	0.986836	0.160639	-0.018706	-0.151862	0.960209	0.234384
10856		9.297713	-1.144020	1.815401	0.551641	0.494266	-0.233010	0.999953	0.006895	0.006178	-0.002913	0.053482	-0.239728	0.969366	0.984863	0.172950	-0.011566	-0.164879	0.955311	0.245348
10857		8.920472	-0.838140	2.063748	0.546740	0.507874	-0.171894	0.999954	0.006834	0.006348	-0.002149	0.053462	-0.250909	0.966533	0.982638	0.185431	-0.006216	-0.177665	0.950084	0.256467
10858		9.455917	0.200344	2.160069	0.569198	0.487053	-0.130307	0.999955	0.007115	0.006088	-0.001629	0.054649	-0.261332	0.963701	0.980061	0.198687	-0.001698	-0.191031	0.944579	0.266979
10859		9.948668	1.539583	2.472685	0.626062	0.419772	-0.128081	0.999954	0.007826	0.005247	-0.001601	0.055415	-0.270257	0.961192	0.976994	0.213236	0.003629	-0.205941	0.938878	0.275856
10860		10.424755	2.452624	2.554618	0.605524	0.351529	-0.124506	0.999960	0.007569	0.004394	-0.001556	0.055035	-0.277966	0.959013	0.973784	0.227255	0.009986	-0.220717	0.933322	0.283186
10861		10.256639	2.882684	3.322801	0.495014	0.250584	-0.157741	0.999974	0.006188	0.003132	-0.001972	0.052857	-0.283356	0.957557	0.970932	0.238748	0.017054	-0.233448	0.928821	0.287739
10862		9.888744	3.164606	3.445796	0.333950	0.139746	-0.213401	0.999986	0.004174	0.001747	-0.002668	0.047763	-0.287114	0.956705	0.969003	0.245742	0.025372	-0.242387	0.925838	0.289951
10863		9.766166	3.197387	2.908805	0.155688	0.036720	-0.258825	0.999993	0.001946	0.000459	-0.003235	0.040297	-0.289413	0.956356	0.968245	0.247658	0.034149	-0.246732	0.924611	0.290203
10864		9.685165	3.080616	3.004333	-0.011704	0.016761	-0.270518	0.999994	-0.000146	0.000210	-0.003381	0.031862	-0.291073	0.956170	0.968375	0.245840	0.042568	-0.247455	0.924575	0.289701
10865		9.322754	2.848173	2.972193	-0.126579	0.098894	-0.290114	0.999991	-0.001582	0.001236	-0.003626	0.022975	-0.295070	0.955199	0.969135	0.241160	0.051186	-0.245459	0.924541	0.291504
10866		8.974240	2.745351	2.981876	-0.126973	0.216454	-0.309327	0.999988	-0.001587	0.002706	-0.003867	0.013900	-0.302234	0.953132	0.969838	0.236067	0.060712	-0.243352	0.923540	0.296400
10867		8.829554	2.572856	3.164663	-0.052325	0.312187	-0.310283	0.999985	-0.000654	0.003902	-0.003879	0.005275	-0.311891	0.950103	0.969992	0.232553	0.070955	-0.243080	0.921218	0.303759
10868		9.137510	2.432763	3.153847	0.063390	0.358362	-0.284851	0.999983	0.000792	0.004479	-0.003561	-0.002634	-0.322320	0.946627	0.969467	0.231299	0.081453	-0.245208	0.917938	0.311870
10869		9.366381	2.516073	3.250208	0.146915	0.389500	-0.232285	0.999982	0.001836	0.004869	-0.002904	-0.008987	-0.333276	0.942786	0.968309	0.232431	0.091395	-0.249592	0.913730	0.320626
10870		9.355168	2.624382	3.167546	0.191976	0.390849	-0.170322	0.999983	0.002400	0.004886	-0.002129	-0.013648	-0.343951	0.938888	0.966735	0.235313	0.100257	-0.255416	0.909025	0.329298
10871		9.399696	2.702379	3.258853	0.225107	0.376349	-0.119020	0.999984	0.002814	0.004704	-0.001488	-0.017465	-0.353809	0.935155	0.965046	0.238649	0.108314	-0.261497	0.904359	0.337274
10872		9.549047	2.635780	3.053448	0.251061	0.385206	-0.075910	0.999983	0.003138	0.004815	-0.000949	-0.019837	-0.363628	0.931333	0.963037	0.243341	0.115522	-0.268639	0.899199	0.345360
10873		9.429696	2.430344	3.270550	0.283496	0.392772	-0.036415	0.999982	0.003544	0.004910	-0.000455	-0.020978	-0.373274	0.927484	0.960636	0.249515	0.122147	-0.277015	0.893537	0.353347
10874		9.269687	2.035643	3.380614	0.326487	0.358300	0.005643	0.999982	0.004081	0.004479	0.000071	-0.021870	-0.381683	0.924035	0.958075	0.256105	0.128462	-0.285682	0.888104	0.360080
10875		9.200558	2.253372	3.419821	0.383910	0.353162	0.009958	0.999979	0.004799	0.004414	0.000124	-0.022276	-0.389845	0.920611	0.955134	0.263725	0.134789	-0.295334	0.882309	0.366480
10876		9.399390	2.242193	3.570451	0.451616	0.366031	-0.003528	0.999974	0.005645	0.004575	-0.000044	-0.022421	-0.398293	0.916984	0.951566	0.272810	0.141762	-0.306625	0.875750	0.372886
10877		9.435057	1.966367	3.679468	0.477904	0.341294	0.011541	0.999973	0.005974	0.004266	0.000144	-0.022641	-0.406018	0.913585	0.947447	0.282970	0.149239	-0.319110	0.868952	0.378273
10878		9.703330	1.882803	3.664958	0.516005	0.285096	0.012395	0.999973	0.006450	0.003564	0.000155	-0.022827	-0.412406	0.910714	0.942961	0.293742	0.156653	-0.332120	0.862344	0.382178
10879		9.549047	2.061742	3.783918	0.528532	0.266625	0.000942	0.999973	0.006607	0.003333	0.000012	-0.023645	-0.418293	0.908005	0.938612	0.303389	0.164205	-0.344164	0.856146	0.385441
10880		9.023190	2.022897	3.911720	0.499370	0.228273	-0.010997	0.999976	0.006242	0.002853	-0.000137	-0.024121	-0.423428	0.905609	0.933964	0.313539	0.171475	-0.356551	0.849942	0.387903
10881		8.575099	1.742752	4.068068	0.465103	0.092997	-0.050574	0.999982	0.005814	0.001162	-0.000632	-0.027156	-0.425886	0.904369	0.929938	0.321125	0.179148	-0.366712	0.845872	0.387327
10882		9.550605	1.791496	3.870835	0.439930	-0.007583	-0.058298	0.999985	0.005499	-0.000095	-0.000729	-0.030360	-0.426373	0.904038	0.925816	0.328918	0.186220	-0.376754	0.842626	0.384757
10883		10.003205	1.877055	4.035116	0.409000	-0.024680	-0.039247	0.999987	0.005112	-0.000308	-0.000491	-0.033567	-0.426244	0.903985	0.922009	0.335863	0.192601	-0.385710	0.839948	0.381727
10884		10.005581	1.845756	4.332934	0.371046	-0.040655	-0.034281	0.999989	0.004638	-0.000508	-0.000429	-0.036840	-0.425618	0.904152	0.918675	0.341655	0.198262	-0.393292	0.837927	0.378419
10885		9.526522	1.667978	4.315091	0.347662	-0.140453	-0.038389	0.999989	0.004346	-0.001756	-0.000480	-0.040264	-0.423071	0.905201	0.915099	0.348155	0.203424	-0.401214	0.836540	0.373134
10886		9.451634	1.721869	4.279794	0.313508	-0.196699	-0.024906	0.999989	0.003919	-0.002459	-0.000311	-0.044642	-0.419105	0.906840	0.912131	0.353139	0.208109	-0.407460	0.836447	0.366514
10887		9.322075	1.821308	4.157687	0.254758	-0.240026	-0.027873	0.999990	0.003184	-0.003000	-0.000348	-0.048468	-0.414426	0.908791	0.909395	0.357996	0.211753	-0.413100	0.836714	0.359526
10888		9.520096	1.863797	3.939951	0.202348	-0.271936	-0.057575	0.999991	0.002529	-0.003399	-0.000720	-0.053998	-0.409183	0.910853	0.907459	0.360513	0.215750	-0.416655	0.838212	0.351850
10889		9.704738	1.864433	3.807890	0.153239	-0.257236	-0.083332	0.999992	0.001915	-0.003215	-0.001042	-0.059779	-0.404534	0.912567	0.905752	0.362278	0.219927	-0.419571	0.839707	0.344751
10890		9.780484	1.656739	3.642848	0.131049	-0.250701	-0.090616	0.999993	0.001638	-0.003134	-0.001133	-0.065655	-0.399960	0.914178	0.904476	0.363087	0.223812	-0.421442	0.841546	0.337916
10891		9.652403	1.513128	3.571943	0.114216	-0.287290	-0.063622	0.999992	0.001428	-0.003591	-0.000795	-0.070802	-0.394404	0.916205	0.903309	0.364255	0.226608	-0.423108	0.843661	0.330479
10892		9.822724	1.600025	3.351630	0.122575	-0.273890	-0.046414	0.999993	0.001532	-0.003424	-0.000580	-0.075197	-0.388856	0.918225	0.902305	0.365459	0.228661	-0.424490	0.845713	0.323385
10893		9.835851	1.637667	3.108313	0.111635	-0.222214	-0.047053	0.999995	0.001395	-0.002778	-0.000588	-0.079101	-0.384251	0.919834	0.901523	0.366224	0.230513	-0.425440	0.847485	0.317442
10894		9.800024	1.679798	3.142396	0.091163	-0.189631	-0.026717	0.999996	0.001140	-0.002370	-0.000334	-0.082066	-0.380397	0.921175	0.900341	0.368062	0.232201	-0.427378	0.848427	0.312282
10895		9.771572	1.641560	3.147947	0.076703	-0.169731	-0.016409	0.999997	0.000959	-0.002122	-0.000205	-0.084366	-0.376685	0.922492	0.899673	0.369172	0.233025	-0.428335	0.849600	0.307748
10896		9.680843	1.606548	3.096780	0.064736	-0.154339	0.002033	0.999998	0.000809	-0.001929	0.000025	-0.085751	-0.373281	0.923747	0.898997	0.370678	0.233242	-0.429477	0.850447	0.303793
10897		9.653042	1.622158	3.063160	0.061150	-0.154301	0.016440	0.999998	0.000764	-0.001929	0.000206	-0.087321	-0.369328	0.925187	0.898619	0.371639	0.233169	-0.429952	0.851752	0.299433
10898		9.689683	1.605162	3.097937	0.040203	-0.160127	0.030177	0.999998	0.000503	-0.002002	0.000377	-0.088186	-0.365242	0.926726	0.898459	0.372552	0.232327	-0.430109	0.853114	0.295301
10899		9.719264	1.548797	2.996405	0.035195	-0.157456	0.035488	0.999998	0.000440	-0.001968	0.000444	-0.088775	-0.361323	0.928205	0.898300	0.373555	0.231329	-0.430320	0.854343	0.291414
10900		9.708937	1.382558	3.018248	0.039598	-0.159866	0.029695	0.999998	0.000495	-0.001998	0.000371	-0.090027	-0.357205	0.929677	0.897916	0.374723	0.230930	-0.430861	0.855562	0.287005
10901		9.737450	1.298762	2.952919	0.045710	-0.144023	0.015849	0.999998	0.000571	-0.001800	0.000198	-0.090934	-0.353711	0.930924	0.897552	0.375867	0.230488	-0.431430	0.856512	0.283295
10902		9.663290	1.313278	2.914656	0.084832	-0.141539	-0.000215	0.999998	0.001060	-0.001769	-0.000003	-0.092057	-0.350326	0.932093	0.896926	0.377395	0.230427	-0.432492	0.857231	0.279474
10903		9.898096	1.316031	2.911870	0.103469	-0.133832	0.001011	0.999998	0.001293	-0.001673	0.000013	-0.092909	-0.347314	0.933135	0.895806	0.379938	0.230605	-0.434626	0.857333	0.275827
10904		9.939844	1.389494	2.977711	0.081094	-0.103228	0.008298	0.999999	0.001014	-0.001290	0.000104	-0.093492	-0.344621	0.934075	0.895030	0.381848	0.230465	-0.436098	0.857571	0.272746
10905		9.711998	1.323903	2.918654	0.069084	-0.067292	0.024361	0.999999	0.000864	-0.000841	0.000305	-0.093221	-0.342754	0.934789	0.894354	0.383767	0.229902	-0.437541	0.857463	0.270768
10906		9.628546	1.165498	2.751036	0.072772	-0.052445	0.043877	0.999999	0.000910	-0.000656	0.000548	-0.092556	-0.340708	0.935602	0.893668	0.385928	0.228947	-0.439079	0.857308	0.268760
10907		9.740420	1.117910	2.651239	0.077209	-0.035770	0.061081	0.999999	0.000965	-0.000447	0.000764	-0.091294	-0.338935	0.936370	0.892899	0.388458	0.227665	-0.440904	0.856868	0.267170
10908		9.885999	1.073106	2.559149	0.091702	0.018891	0.078300	0.999999	0.001146	0.000236	0.000979	-0.088676	-0.338306	0.936849	0.892109	0.391370	0.225769	-0.443033	0.855791	0.267101
10909		9.924722	1.150662	2.519884	0.097806	0.077408	0.092079	0.999998	0.001223	0.000968	0.001151	-0.085210	-0.338377	0.937145	0.891231	0.394640	0.223529	-0.445472	0.854260	0.267945
10910		9.990227	1.453658	2.290573	0.077958	0.134468	0.087133	0.999998	0.000974	0.001681	0.001089	-0.080990	-0.340104	0.936894	0.890652	0.397253	0.221200	-0.447415	0.852361	0.270740
10911		10.112254	1.594863	2.517861	0.067962	0.224572	0.074255	0.999995	0.000850	0.002807	0.000928	-0.076229	-0.343690	0.935984	0.889988	0.399794	0.219286	-0.449567	0.849731	0.275404
10912		9.933914	1.548472	2.751540	0.057964	0.277610	0.067324	0.999993	0.000725	0.003470	0.000842	-0.070839	-0.348486	0.934633	0.889460	0.402037	0.217318	-0.451490	0.846713	0.281484
10913		9.721407	1.629373	2.971942	0.046564	0.293089	0.066462	0.999993	0.000582	0.003664	0.000831	-0.065439	-0.353441	0.933165	0.889050	0.403993	0.215360	-0.453110	0.843723	0.287790
10914		9.582592	1.629195	3.094645	0.034109	0.292795	0.064469	0.999993	0.000426	0.003660	0.000806	-0.059843	-0.358607	0.931568	0.888780	0.405694	0.213267	-0.454411	0.840722	0.294444
10915		9.685965	1.735644	3.189336	0.016445	0.293237	0.044016	0.999993	0.000206	0.003665	0.000550	-0.054701	-0.363845	0.929852	0.888636	0.406929	0.211505	-0.455339	0.837869	0.301067
10916		9.733346	1.762688	3.364966	-0.014538	0.330599	0.018884	0.999991	-0.000182	0.004132	0.000236	-0.049801	-0.370071	0.927668	0.888857	0.407152	0.210141	-0.455469	0.835030	0.308664
10917		9.622411	1.716646	3.522784	-0.038187	0.353505	-0.004979	0.999990	-0.000477	0.004419	-0.000062	-0.045275	-0.377101	0.925065	0.889291	0.406643	0.209291	-0.455096	0.832127	0.316942
10918		9.382304	1.653532	3.684227	-0.082852	0.317894	-0.007594	0.999992	-0.001036	0.003974	-0.000095	-0.040926	-0.383418	0.922668	0.890364	0.405051	0.207813	-0.453406	0.830015	0.324804
10919		9.356489	1.706579	3.689381	-0.106313	0.293324	-0.019961	0.999992	-0.001329	0.003667	-0.000250	-0.037259	-0.389276	0.920367	0.891567	0.403040	0.206561	-0.451354	0.828265	0.332049
10920		9.599853	1.796995	3.724431	-0.130363	0.288398	-0.047924	0.999992	-0.001630	0.003605	-0.000599	-0.034362	-0.395323	0.917899	0.892992	0.400257	0.205814	-0.448758	0.826749	0.339267
10921		9.827243	1.704740	4.001855	-0.174233	0.286032	-0.071329	0.999991	-0.002178	0.003575	-0.000892	-0.032275	-0.401397	0.915335	0.894696	0.396612	0.205471	-0.445508	0.825578	0.346327
10922		9.581678	1.538662	4.184817	-0.178625	0.232510	-0.086211	0.999993	-0.002233	0.002906	-0.001078	-0.031056	-0.406666	0.913049	0.896590	0.392414	0.205274	-0.441771	0.825006	0.352426
10923		9.589197	1.427164	4.162372	-0.140659	0.187978	-0.069328	0.999995	-0.001758	0.002350	-0.000867	-0.029950	-0.410947	0.911167	0.898111	0.389068	0.204995	-0.438748	0.824469	0.357423
10924		9.590281	1.471137	4.196295	-0.104451	0.179164	-0.054119	0.999996	-0.001306	0.002240	-0.000676	-0.028576	-0.414720	0.909500	0.899076	0.386985	0.204708	-0.436859	0.823559	0.361806
10925		9.396893	1.615922	4.330798	-0.095894	0.156559	-0.040138	0.999997	-0.001199	0.001957	-0.000502	-0.026964	-0.417886	0.908099	0.900101	0.385020	0.203904	-0.434845	0.822880	0.365758
10926		9.473881	1.803845	4.099656	-0.114384	0.136521	-0.038254	0.999997	-0.001430	0.001707	-0.000478	-0.025832	-0.420681	0.906841	0.901250	0.382696	0.203204	-0.432528	0.822540	0.369253
10927		9.555432	1.845247	4.088201	-0.123258	0.139754	-0.057960	0.999997	-0.001541	0.001747	-0.000724	-0.025046	-0.423819	0.905400	0.902544	0.379861	0.202780	-0.429869	0.822242	0.373002
10928		9.500135	1.781574	4.020058	-0.143324	0.134556	-0.055170	0.999997	-0.001792	0.001682	-0.000690	-0.024187	-0.426901	0.903975	0.904110	0.376535	0.202008	-0.426615	0.822178	0.376858
10929		9.560767	1.798672	3.987374	-0.156750	0.180218	-0.052836	0.999995	-0.001959	0.002253	-0.000660	-0.022819	-0.430672	0.902220	0.905696	0.373216	0.201061	-0.423314	0.821725	0.381541
10930		9.645615	1.785199	4.076594	-0.172550	0.234168	-0.049024	0.999993	-0.002157	0.002927	-0.000613	-0.021061	-0.435818	0.899788	0.907561	0.369197	0.200066	-0.419391	0.820826	0.387756
10931		9.348606	1.661863	4.186836	-0.177016	0.218487	-0.051973	0.999994	-0.002213	0.002731	-0.000650	-0.019678	-0.440636	0.897470	0.909434	0.365049	0.199171	-0.415383	0.820109	0.393545
10932		9.338388	1.638171	4.229069	-0.172256	0.178575	-0.046382	0.999995	-0.002153	0.002232	-0.000580	-0.018500	-0.444725	0.895476	0.911361	0.360838	0.198033	-0.411192	0.819766	0.398630
10933		9.546882	1.533711	4.142803	-0.157001	0.184166	-0.042546	0.999995	-0.001963	0.002302	-0.000532	-0.017157	-0.448852	0.893441	0.913096	0.357046	0.196910	-0.407383	0.819176	0.403719
10934		9.496919	1.500097	4.269864	-0.128405	0.196099	-0.037870	0.999996	-0.001605	0.002451	-0.000473	-0.015374	-0.452856	0.891451	0.914345	0.354438	0.195823	-0.404644	0.818105	0.408618
10935		9.624705	1.474250	4.232917	-0.087140	0.215806	-0.025886	0.999996	-0.001089	0.002698	-0.000324	-0.013261	-0.457244	0.889242	0.915199	0.352685	0.194997	-0.402783	0.816420	0.413792
10936		9.877938	1.429667	4.133741	-0.034386	0.247076	-0.009837	0.999995	-0.000430	0.003088	-0.000123	-0.010308	-0.461962	0.886840	0.915462	0.352429	0.194223	-0.402272	0.813870	0.419276
10937		9.800107	1.461835	4.329463	0.021949	0.275603	0.007620	0.999994	0.000274	0.003445	0.000095	-0.006846	-0.467188	0.884132	0.915212	0.353319	0.193785	-0.402915	0.810494	0.425157
10938		9.586096	1.423497	4.350576	0.088808	0.285196	0.021152	0.999993	0.001110	0.003565	0.000264	-0.002908	-0.472468	0.881343	0.914315	0.355685	0.193692	-0.404994	0.806388	0.430950
10939		9.383246	1.348250	4.438910	0.149414	0.255762	0.029369	0.999993	0.001868	0.003197	0.000367	0.000893	-0.477098	0.878850	0.912807	0.359303	0.194126	-0.408391	0.802046	0.435819
10940		9.327591	1.525980	4.547308	0.178917	0.226817	0.039472	0.999993	0.002236	0.002835	0.000493	0.004678	-0.480949	0.876736	0.910911	0.363777	0.194696	-0.412576	0.797718	0.439804
10941		9.406591	1.471166	4.529893	0.203375	0.211593	0.040229	0.999993	0.002542	0.002645	0.000503	0.008244	-0.484618	0.874687	0.908849	0.368439	0.195567	-0.417044	0.793346	0.443482
10942		9.462928	1.462558	4.658274	0.246976	0.204951	0.028816	0.999992	0.003087	0.002562	0.000360	0.011403	-0.488307	0.872597	0.906335	0.373685	0.197271	-0.422406	0.788616	0.446831
10943		9.475128	1.699427	4.613144	0.250971	0.185731	0.012250	0.999992	0.003137	0.002322	0.000153	0.014082	-0.491539	0.870741	0.903580	0.379170	0.199431	-0.428187	0.783976	0.449485
10944		9.531868	1.635222	4.678964	0.226431	0.166975	0.011614	0.999994	0.002830	0.002087	0.000145	0.016677	-0.494370	0.869092	0.901038	0.384218	0.201266	-0.433420	0.779728	0.451854
10945		9.588983	1.607506	4.731720	0.180158	0.168120	0.023057	0.999995	0.002252	0.002101	0.000288	0.019599	-0.497077	0.867485	0.898960	0.388512	0.202311	-0.437592	0.775869	0.454466
10946		9.451641	1.529211	4.546643	0.154927	0.181148	0.012373	0.999996	0.001937	0.002264	0.000155	0.022448	-0.500205	0.865616	0.897231	0.392001	0.203254	-0.440991	0.772095	0.457599
10947		9.417655	1.627365	4.666367	0.123301	0.158017	0.006167	0.999997	0.001541	0.001975	0.000077	0.024868	-0.502843	0.864020	0.895763	0.394929	0.204060	-0.443836	0.768882	0.460249
10948		9.371901	1.724369	4.830605	0.054931	0.147852	-0.002469	0.999998	0.000687	0.001848	-0.000031	0.027026	-0.505305	0.862517	0.895001	0.396543	0.204271	-0.445244	0.766434	0.462966
10949		9.288138	1.828895	4.807152	-0.019812	0.132761	-0.011991	0.999999	-0.000248	0.001660	-0.000150	0.028544	-0.507797	0.861004	0.895227	0.396183	0.203980	-0.444695	0.764972	0.465902
10950		9.399089	1.766655	4.718507	-0.076467	0.121593	-0.015289	0.999998	-0.000956	0.001520	-0.000191	0.030195	-0.509970	0.859662	0.896049	0.394925	0.202805	-0.442927	0.764176	0.468883
10951		9.535535	1.734077	5.000492	-0.110334	0.114335	-0.013694	0.999998	-0.001379	0.001429	-0.000171	0.031659	-0.511893	0.858466	0.897130	0.393200	0.201376	-0.440632	0.763780	0.471682
10952		9.479424	1.727451	5.002034	-0.155585	0.120309	-0.007621	0.999997	-0.001945	0.001504	-0.000095	0.033253	-0.513929	0.857188	0.898676	0.390682	0.199372	-0.437351	0.763704	0.474847
10953		9.342175	1.649927	4.966862	-0.167314	0.107226	-0.015127	0.999997	-0.002091	0.001340	-0.000189	0.034582	-0.515788	0.856018	0.900358	0.387841	0.197318	-0.433773	0.763899	0.477807
10954		9.420235	1.621580	5.186343	-0.178551	0.091314	-0.023320	0.999997	-0.002232	0.001141	-0.000291	0.035704	-0.517325	0.855044	0.902117	0.384832	0.195165	-0.430012	0.764382	0.480428
10955		9.285517	1.603279	5.223263	-0.183235	0.095350	-0.039306	0.999997	-0.002290	0.001192	-0.000491	0.036402	-0.519234	0.853857	0.903983	0.381348	0.193360	-0.426016	0.764833	0.483260
10956		9.284743	1.652399	5.259314	-0.174325	0.083001	-0.049508	0.999997	-0.002179	0.001038	-0.000619	0.036658	-0.520910	0.852824	0.905715	0.377950	0.191923	-0.422299	0.765380	0.485651
10957		9.360267	1.584476	5.274566	-0.164893	0.071253	-0.056263	0.999997	-0.002061	0.000891	-0.000703	0.036673	-0.522587	0.851797	0.907446	0.374427	0.190647	-0.418565	0.765968	0.487950
10958		9.411672	1.591792	5.401032	-0.148734	0.068213	-0.063003	0.999998	-0.001859	0.000853	-0.000788	0.036719	-0.524059	0.850890	0.908900	0.371445	0.189549	-0.415394	0.766414	0.489956
10959		9.344317	1.581168	5.420377	-0.137628	0.067309	-0.057770	0.999998	-0.001720	0.000841	-0.000722	0.036653	-0.525700	0.849880	0.910345	0.368376	0.188601	-0.412223	0.766772	0.492070
10960		9.357067	1.539177	5.328018	-0.104746	0.066442	-0.054171	0.999999	-0.001309	0.000831	-0.000677	0.036732	-0.527054	0.849038	0.911248	0.366425	0.188041	-0.410216	0.766777	0.493737
10961		9.297218	1.607341	5.298804	-0.075284	0.063369	-0.054616	0.999999	-0.000941	0.000792	-0.000683	0.036838	-0.528249	0.848290	0.911827	0.365121	0.187772	-0.408919	0.766577	0.495122
10962		9.308807	1.660100	5.284020	-0.065639	0.062857	-0.051793	0.999999	-0.000820	0.000786	-0.000647	0.036886	-0.529510	0.847501	0.912317	0.363941	0.187680	-0.407819	0.766268	0.496506
10963		9.307098	1.645291	5.303789	-0.060102	0.062074	-0.041891	0.999999	-0.000751	0.000776	-0.000524	0.037070	-0.530785	0.846696	0.912817	0.362796	0.187468	-0.406683	0.765929	0.497958
10964		9.315119	1.642385	5.306539	-0.049206	0.069682	-0.032053	0.999999	-0.000615	0.000871	-0.000401	0.037728	-0.532101	0.845840	0.913227	0.362006	0.186998	-0.405701	0.765389	0.499587
10965		9.293187	1.664603	5.288482	-0.035429	0.056503	-0.021290	1.000000	-0.000443	0.000706	-0.000266	0.038473	-0.532946	0.845274	0.913396	0.361811	0.186548	-0.405250	0.764893	0.500711
10966		9.229952	1.681146	5.377267	-0.037223	0.050198	-0.016237	1.000000	-0.000465	0.000627	-0.000203	0.039159	-0.533736	0.844744	0.913622	0.361495	0.186052	-0.404673	0.764492	0.501789
10967		9.278299	1.705293	5.302145	-0.033072	0.040733	-0.017269	1.000000	-0.000413	0.000509	-0.000216	0.039637	-0.534564	0.844198	0.913948	0.360896	0.185615	-0.403891	0.764196	0.502868
10968		9.317790	1.638280	5.383016	-0.040487	0.045404	-0.015167	1.000000	-0.000506	0.000568	-0.000190	0.040201	-0.535385	0.843651	0.914273	0.360335	0.185105	-0.403100	0.763885	0.503974
10969		9.281502	1.598794	5.307882	-0.032665	0.030416	-0.020274	1.000000	-0.000408	0.000380	-0.000253	0.040563	-0.535931	0.843286	0.914509	0.359918	0.184748	-0.402526	0.763699	0.504714
10970		9.242411	1.543895	5.360490	-0.027777	0.001841	-0.012577	1.000000	-0.000347	0.000023	-0.000157	0.040872	-0.535663	0.843442	0.914549	0.360030	0.184334	-0.402406	0.763835	0.504605
10971		9.318041	1.575300	5.173943	-0.019752	0.023055	-0.009510	1.000000	-0.000247	0.000288	-0.000119	0.041462	-0.535848	0.843296	0.914537	0.360256	0.183949	-0.402371	0.763599	0.504990
10972		9.306844	1.589790	5.146052	-0.003461	0.018188	-0.015359	1.000000	-0.000043	0.000227	-0.000192	0.041989	-0.535876	0.843252	0.914361	0.360801	0.183754	-0.402716	0.763321	0.505134
10973		9.252077	1.598061	5.351560	0.005934	-0.007942	-0.020412	1.000000	0.000074	-0.000099	-0.000255	0.041926	-0.535629	0.843412	0.914141	0.361247	0.183977	-0.403224	0.763284	0.504786
10974		9.233792	1.586527	5.370829	0.000674	-0.003858	-0.022217	1.000000	0.000008	-0.000048	-0.000278	0.041778	-0.535469	0.843521	0.913916	0.361646	0.184309	-0.403747	0.763207	0.504483
10975		9.302048	1.627867	5.244053	-0.001166	-0.005880	-0.014476	1.000000	-0.000015	-0.000074	-0.000181	0.041989	-0.535161	0.843706	0.913747	0.362119	0.184217	-0.404108	0.763199	0.504207
10976		9.324263	1.605750	5.296323	-0.001000	-0.007514	-0.012975	1.000000	-0.000012	-0.000094	-0.000162	0.042193	-0.534739	0.843964	0.913524	0.362717	0.184148	-0.404591	0.763211	0.503801
10977		9.385297	1.607851	5.382230	0.001194	-0.014456	-0.014393	1.000000	0.000015	-0.000181	-0.000180	0.042219	-0.534322	0.844226	0.913326	0.363192	0.184194	-0.405034	0.763277	0.503344
10978		9.351248	1.623154	5.280557	-0.000821	-0.008924	-0.013754	1.000000	-0.000010	-0.000112	-0.000172	0.042416	-0.533815	0.844537	0.913079	0.363849	0.184123	-0.405571	0.763319	0.502848
10979		9.243163	1.574191	5.364711	0.017067	-0.036712	-0.008363	1.000000	0.000213	-0.000459	-0.000105	0.042470	-0.532751	0.845206	0.912679	0.364854	0.184114	-0.406464	0.763582	0.501726
10980		9.324963	1.615364	5.279799	0.018464	-0.034988	0.002020	1.000000	0.000231	-0.000437	0.000025	0.042683	-0.531691	0.845862	0.912254	0.365970	0.184008	-0.407396	0.763787	0.500657
10981		9.306186	1.709841	5.229792	0.020407	-0.032054	0.001361	1.000000	0.000255	-0.000401	0.000017	0.042979	-0.530720	0.846457	0.911859	0.367042	0.183832	-0.408248	0.763948	0.499717
10982		9.358621	1.709701	5.196797	0.019279	-0.037435	0.006198	1.000000	0.000241	-0.000468	0.000077	0.043266	-0.529573	0.847160	0.911424	0.368219	0.183631	-0.409186	0.764178	0.498597
10983		9.397921	1.702361	5.318510	0.007851	-0.023138	0.007949	1.000000	0.000098	-0.000289	0.000099	0.043693	-0.528870	0.847577	0.911182	0.368995	0.183274	-0.409680	0.764290	0.498020
10984		9.322678	1.702197	5.294499	-0.007830	-0.011171	0.013401	1.000000	-0.000098	-0.000140	0.000168	0.044334	-0.528213	0.847953	0.911020	0.369697	0.182663	-0.409971	0.764405	0.497604
10985		9.322282	1.689801	5.253284	-0.015752	-0.007087	0.019732	1.000000	-0.000197	-0.000089	0.000247	0.045131	-0.527604	0.848290	0.910938	0.370301	0.181849	-0.410067	0.764533	0.497327
10986		9.340366	1.629997	5.210410	-0.014312	-0.003801	0.021826	1.000000	-0.000179	-0.000048	0.000273	0.046113	-0.527008	0.848608	0.910877	0.370934	0.180863	-0.410094	0.764637	0.497145
10987		9.345770	1.614579	5.211788	-0.009271	0.000612	0.022722	1.000000	-0.000116	0.000008	0.000284	0.047189	-0.526382	0.848938	0.910735	0.371758	0.179884	-0.410287	0.764669	0.496937
10988		9.342973	1.631353	5.228315	-0.008463	0.005174	0.017576	1.000000	-0.000106	0.000065	0.000220	0.048093	-0.526000	0.849123	0.910586	0.372472	0.179159	-0.410513	0.764583	0.496882
10989		9.331932	1.641025	5.217991	-0.005175	0.002973	0.018147	1.000000	-0.000065	0.000037	0.000227	0.048992	-0.525589	0.849327	0.910406	0.373247	0.178461	-0.410805	0.764489	0.496786
10990		9.313555	1.622134	5.185746	-0.005135	-0.002274	0.016908	1.000000	-0.000064	-0.000028	0.000211	0.049832	-0.525057	0.849607	0.910230	0.374012	0.177752	-0.411093	0.764480	0.496561
10991		9.333147	1.592783	5.176393	0.001585	-0.003535	0.017684	1.000000	0.000020	-0.000044	0.000221	0.050687	-0.524405	0.849959	0.909966	0.374971	0.177082	-0.411573	0.764458	0.496197
10992		9.329673	1.623013	5.198422	0.002426	-0.006256	0.016481	1.000000	0.000030	-0.000078	0.000206	0.051480	-0.523822	0.850271	0.909731	0.375836	0.176459	-0.411995	0.764433	0.495885
10993		9.381621	1.601701	5.272653	0.009113	0.002256	0.011243	1.000000	0.000114	0.000028	0.000141	0.052259	-0.523387	0.850491	0.909427	0.376787	0.175993	-0.412566	0.764262	0.495673
10994		9.310875	1.551381	5.245454	0.014653	0.009476	0.008145	1.000000	0.000183	0.000118	0.000102	0.053006	-0.523293	0.850502	0.909102	0.377694	0.175728	-0.413187	0.763879	0.495747
10995		9.255467	1.587125	5.229372	0.011502	-0.013839	0.009878	1.000000	0.000144	-0.000173	0.000123	0.053553	-0.522587	0.850902	0.908763	0.378676	0.175371	-0.413863	0.763877	0.495187
10996		9.453486	1.609753	5.413026	0.011375	-0.026967	0.018539	1.000000	0.000142	-0.000337	0.000232	0.054183	-0.521591	0.851474	0.908446	0.379704	0.174789	-0.414476	0.764047	0.494410
10997		9.396430	1.556606	5.030051	0.017777	0.007094	0.010104	1.000000	0.000222	0.000089	0.000126	0.054910	-0.521262	0.851628	0.908010	0.380848	0.174563	-0.415334	0.763702	0.494224
10998		9.298438	1.613715	5.146480	0.025948	-0.020496	0.009444	1.000000	0.000324	-0.000256	0.000118	0.055366	-0.520483	0.852075	0.907531	0.382059	0.174407	-0.416319	0.763629	0.493508
10999		9.288585	1.595609	5.276368	0.022730	-0.030370	0.007027	1.000000	0.000284	-0.000380	0.000088	0.055656	-0.519449	0.852687	0.907068	0.383228	0.174253	-0.417289	0.763747	0.492505
11000		9.327128	1.620104	5.241618	0.013178	-0.020851	0.008098	1.000000	0.000165	-0.000261	0.000101	0.056091	-0.518646	0.853147	0.906740	0.384154	0.173921	-0.417943	0.763827	0.491825
11001		9.356963	1.617957	5.217973	0.002027	-0.021367	0.013258	1.000000	0.000025	-0.000267	0.000166	0.056616	-0.517813	0.853619	0.906513	0.384934	0.173380	-0.418365	0.764000	0.491197
11002		9.380054	1.620290	5.184061	-0.000262	-0.022819	0.013816	1.000000	-0.000003	-0.000285	0.000173	0.057136	-0.517003	0.854075	0.906312	0.385656	0.172821	-0.418728	0.764184	0.490601
11003		9.405376	1.607880	5.196768	-0.007179	-0.014889	0.015060	1.000000	-0.000090	-0.000186	0.000188	0.057699	-0.516199	0.854523	0.906097	0.386419	0.172246	-0.419118	0.764342	0.490022
11004		9.288612	1.589419	5.190525	0.002528	-0.024217	0.012572	1.000000	0.000032	-0.000303	0.000157	0.058175	-0.515422	0.854959	0.905870	0.387164	0.171767	-0.419542	0.764489	0.489429
11005		9.361917	1.608909	5.262551	-0.003365	-0.028786	0.019515	1.000000	-0.000042	-0.000360	0.000244	0.058762	-0.514415	0.855526	0.905693	0.387903	0.171032	-0.419842	0.764794	0.488696
11006		9.346219	1.572085	5.175827	0.000256	-0.032008	0.015620	1.000000	0.000003	-0.000400	0.000195	0.059221	-0.513397	0.856105	0.905480	0.388660	0.170439	-0.420237	0.765093	0.487888
11007		9.384214	1.570551	5.221314	-0.000075	-0.031237	0.014689	1.000000	-0.000001	-0.000390	0.000184	0.059681	-0.512405	0.856668	0.905285	0.389379	0.169834	-0.420592	0.765392	0.487111
11008		9.356757	1.545679	5.251441	-0.005810	-0.030440	0.013813	1.000000	-0.000073	-0.000380	0.000173	0.060088	-0.511365	0.857261	0.905121	0.390029	0.169213	-0.420886	0.765757	0.486283
11009		9.334630	1.563432	5.256959	-0.009247	-0.031154	0.011343	1.000000	-0.000116	-0.000389	0.000142	0.060461	-0.510342	0.857844	0.905040	0.390512	0.168533	-0.421008	0.766193	0.485490
11010		9.365604	1.512644	5.213746	-0.012537	-0.026456	0.008711	1.000000	-0.000157	-0.000331	0.000109	0.060849	-0.509440	0.858352	0.905043	0.390822	0.167797	-0.420945	0.766635	0.484846
11011		9.409564	1.513504	5.173443	-0.004194	-0.023168	0.006414	1.000000	-0.000052	-0.000290	0.000080	0.061149	-0.508640	0.858805	0.904855	0.391427	0.167400	-0.421306	0.766857	0.484180
11012		9.426007	1.542027	5.177226	0.001515	-0.015129	0.002719	1.000000	0.000019	-0.000189	0.000034	0.061467	-0.507994	0.859165	0.904657	0.392025	0.167069	-0.421684	0.766980	0.483657
11013		9.406114	1.585835	5.168621	0.001812	-0.004578	-0.002984	1.000000	0.000023	-0.000057	-0.000037	0.061742	-0.507581	0.859389	0.904434	0.392608	0.166908	-0.422122	0.766955	0.483314
11014		9.380468	1.601585	5.204491	-0.002648	0.009034	-0.006364	1.000000	-0.000033	0.000113	-0.000080	0.062102	-0.507532	0.859392	0.904269	0.393044	0.166775	-0.422423	0.766764	0.483355
11015		9.341886	1.566851	5.164540	-0.008859	0.004755	-0.003439	1.000000	-0.000111	0.000059	-0.000043	0.062420	-0.507269	0.859524	0.904099	0.393516	0.166585	-0.422740	0.766697	0.483184
11016		9.361366	1.554652	5.172889	-0.009817	-0.003589	0.001241	1.000000	-0.000123	-0.000045	0.000016	0.062771	-0.506856	0.859742	0.903939	0.394009	0.166288	-0.423030	0.766716	0.482899
11017		9.377427	1.533153	5.215798	-0.012109	-0.003183	0.006564	1.000000	-0.000151	-0.000040	0.000082	0.063284	-0.506511	0.859908	0.903815	0.394479	0.165845	-0.423218	0.766702	0.482757
11018		9.391271	1.518071	5.237419	-0.011488	0.009362	0.005099	1.000000	-0.000144	0.000117	0.000064	0.063875	-0.506282	0.859999	0.903744	0.394858	0.165329	-0.423281	0.766659	0.482771
11019		9.358027	1.524275	5.173241	-0.003300	0.009028	0.000067	1.000000	-0.000041	0.000113	0.000001	0.064364	-0.506150	0.860040	0.903596	0.395322	0.165030	-0.423523	0.766507	0.482800
11020		9.358781	1.517060	5.197352	-0.001805	0.001139	-0.001153	1.000000	-0.000023	0.000014	-0.000014	0.064765	-0.505916	0.860148	0.903462	0.395748	0.164742	-0.423748	0.766441	0.482706
11021		9.438856	1.514986	5.299747	-0.000468	-0.008245	0.005028	1.000000	-0.000006	-0.000103	0.000063	0.065190	-0.505452	0.860389	0.903246	0.396375	0.164421	-0.424143	0.766424	0.482387
11022		9.391015	1.520144	5.037688	0.002745	0.014718	-0.002075	1.000000	0.000034	0.000184	-0.000026	0.065676	-0.505449	0.860353	0.903001	0.396985	0.164294	-0.424589	0.766110	0.482494
11023		9.378973	1.544495	5.088512	0.005579	-0.003720	-0.001045	1.000000	0.000070	-0.000047	-0.000013	0.066013	-0.505149	0.860504	0.902739	0.397631	0.164172	-0.425094	0.765973	0.482267
11024		9.340402	1.539218	5.175531	0.000668	-0.005435	-0.005392	1.000000	0.000008	-0.000068	-0.000067	0.066198	-0.504770	0.860712	0.902557	0.398095	0.164049	-0.425452	0.765982	0.481936
11025		9.374159	1.512103	5.172834	-0.004754	0.001210	-0.002437	1.000000	-0.000059	0.000015	-0.000030	0.066515	-0.504488	0.860853	0.902395	0.398547	0.163837	-0.425744	0.765932	0.481757
11026		9.382274	1.510687	5.139299	-0.007541	0.002410	0.001086	1.000000	-0.000094	0.000030	0.000014	0.066923	-0.504197	0.860992	0.902258	0.398990	0.163519	-0.425972	0.765893	0.481617
11027		9.395838	1.534822	5.117844	-0.007868	0.002272	0.001609	1.000000	-0.000098	0.000028	0.000020	0.067355	-0.503926	0.861117	0.902117	0.399442	0.163192	-0.426202	0.765836	0.481505
11028		9.446451	1.547393	5.121214	-0.012976	0.013130	0.001352	1.000000	-0.000162	0.000164	0.000017	0.067889	-0.503849	0.861120	0.902058	0.399744	0.162777	-0.426243	0.765729	0.481639
11029		9.345930	1.518192	5.184359	0.001116	0.011276	-0.002763	1.000000	0.000014	0.000141	-0.000035	0.068343	-0.503821	0.861100	0.901909	0.400170	0.162554	-0.426484	0.765525	0.481749
11030		9.332632	1.502568	5.194231	-0.003769	0.000518	-0.000286	1.000000	-0.000047	0.000006	-0.000004	0.068733	-0.503572	0.861215	0.901782	0.400578	0.162256	-0.426691	0.765476	0.481645
11031		9.354573	1.527271	5.138288	0.000810	0.003415	-0.001412	1.000000	0.000010	0.000043	-0.000018	0.069088	-0.503324	0.861331	0.901540	0.401179	0.162117	-0.427145	0.765324	0.481483
11032		9.380872	1.535325	5.181075	0.000495	-0.001484	0.000973	1.000000	0.000006	-0.000019	0.000012	0.069465	-0.503001	0.861490	0.901367	0.401675	0.161847	-0.427448	0.765276	0.481291
11033		9.407502	1.534362	5.162391	0.000162	0.000651	0.001704	1.000000	0.000002	0.000008	0.000021	0.069906	-0.502753	0.861599	0.901156	0.402248	0.161601	-0.427822	0.765138	0.481178
11034		9.400218	1.527392	5.220143	-0.000016	0.005713	0.004346	1.000000	-0.000000	0.000071	0.000054	0.070407	-0.502510	0.861700	0.900930	0.402865	0.161323	-0.428215	0.764973	0.481091
11035		9.372505	1.501458	5.217007	-0.004307	0.017504	0.004743	1.000000	-0.000054	0.000219	0.000059	0.071038	-0.502488	0.861661	0.900812	0.403290	0.160917	-0.428358	0.764763	0.481296
11036		9.363555	1.501650	5.180302	-0.002176	0.016504	0.005372	1.000000	-0.000027	0.000206	0.000067	0.071720	-0.502497	0.861599	0.900680	0.403751	0.160501	-0.428523	0.764514	0.481546
11037		9.388214	1.499888	5.165478	-0.002496	0.014516	0.001136	1.000000	-0.000031	0.000181	0.000014	0.072237	-0.502455	0.861580	0.900506	0.404241	0.160243	-0.428801	0.764283	0.481665
11038		9.392921	1.518518	5.204181	-0.002506	0.018382	0.000721	1.000000	-0.000031	0.000230	0.000009	0.072830	-0.502537	0.861483	0.900311	0.404769	0.160006	-0.429110	0.763949	0.481919
11039		9.381954	1.531248	5.175976	-0.004479	0.021840	-0.001104	1.000000	-0.000056	0.000273	-0.000014	0.073341	-0.502615	0.861394	0.900196	0.405128	0.159744	-0.429264	0.763708	0.482165
11040		9.359799	1.521264	5.179075	-0.004798	0.018740	-0.001617	1.000000	-0.000060	0.000234	-0.000020	0.073807	-0.502633	0.861343	0.900018	0.405595	0.159562	-0.429557	0.763448	0.482315
11041		9.355072	1.522746	5.204052	-0.006407	0.008464	-0.002933	1.000000	-0.000080	0.000106	-0.000037	0.074176	-0.502543	0.861364	0.899950	0.405854	0.159288	-0.429637	0.763369	0.482368
11042		9.376409	1.513732	5.222793	-0.008200	0.004841	-0.002228	1.000000	-0.000102	0.000061	-0.000028	0.074544	-0.502390	0.861422	0.899849	0.406183	0.159021	-0.429785	0.763295	0.482353
11043		9.373600	1.525216	5.232884	-0.007229	0.012517	-0.007728	1.000000	-0.000090	0.000156	-0.000097	0.074870	-0.502433	0.861368	0.899686	0.406570	0.158951	-0.430069	0.763060	0.482472
11044		9.337007	1.531570	5.160438	-0.008701	0.013114	-0.010237	1.000000	-0.000109	0.000164	-0.000128	0.075146	-0.502529	0.861288	0.899637	0.406730	0.158820	-0.430123	0.762912	0.482658
11045		9.375372	1.512254	5.262900	-0.007038	0.006982	-0.013477	1.000000	-0.000088	0.000087	-0.000168	0.075303	-0.502554	0.861260	0.899585	0.406868	0.158759	-0.430204	0.762822	0.482728
11046		9.383695	1.495601	5.265401	-0.011101	-0.009648	-0.003323	1.000000	-0.000139	-0.000121	-0.000042	0.075400	-0.502034	0.861555	0.899506	0.407137	0.158521	-0.430354	0.763021	0.482281
11047		9.372833	1.489335	5.101859	-0.006747	0.014216	-0.007995	1.000000	-0.000084	0.000178	-0.000100	0.075778	-0.502192	0.861430	0.899427	0.407371	0.158366	-0.430451	0.762793	0.482555
11048		9.385070	1.525576	5.142608	0.007883	0.000862	-0.010486	1.000000	0.000099	0.000011	-0.000131	0.075915	-0.502051	0.861500	0.899135	0.407959	0.158513	-0.431038	0.762571	0.482381
11049		9.318831	1.519603	5.217875	0.011348	-0.003018	-0.016086	1.000000	0.000142	-0.000038	-0.000201	0.075879	-0.501917	0.861581	0.898896	0.408394	0.158747	-0.431542	0.762426	0.482160
11050		9.364877	1.533879	5.199784	0.012175	-0.005952	-0.015016	1.000000	0.000152	-0.000074	-0.000188	0.075822	-0.501693	0.861717	0.898617	0.408909	0.158999	-0.432132	0.762298	0.481834
11051		9.380458	1.531569	5.174420	0.013786	-0.002242	-0.008941	1.000000	0.000172	-0.000028	-0.000112	0.076007	-0.501531	0.861795	0.898257	0.409634	0.159168	-0.432848	0.762015	0.481638
11052		9.414885	1.563508	5.176201	0.015243	0.001034	-0.006846	1.000000	0.000191	0.000013	-0.000086	0.076177	-0.501342	0.861890	0.897959	0.410248	0.159267	-0.433435	0.761809	0.481436
11053		9.418401	1.553982	5.147472	0.011611	0.008561	-0.007922	1.000000	0.000145	0.000107	-0.000099	0.076467	-0.501341	0.861865	0.897636	0.410910	0.159383	-0.434054	0.761453	0.481442
11054		9.354433	1.550044	5.232788	0.021958	0.000455	-0.005260	1.000000	0.000274	0.000006	-0.000066	0.076674	-0.501140	0.861963	0.897294	0.411613	0.159492	-0.434723	0.761205	0.481230
11055		9.359951	1.533104	5.225837	0.011957	0.001230	-0.002235	1.000000	0.000149	0.000015	-0.000028	0.076952	-0.500898	0.862079	0.897016	0.412235	0.159452	-0.435248	0.761028	0.481036
11056		9.353716	1.547139	5.171881	0.015041	0.009288	-0.005455	1.000000	0.000188	0.000116	-0.000068	0.077212	-0.500825	0.862098	0.896733	0.412827	0.159513	-0.435785	0.760755	0.480981
11057		9.361170	1.553631	5.169068	0.015720	0.002311	-0.002563	1.000000	0.000196	0.000029	-0.000032	0.077525	-0.500664	0.862163	0.896426	0.413493	0.159512	-0.436360	0.760499	0.480864
11058		9.390733	1.576480	5.207541	0.013566	0.007868	-0.002791	1.000000	0.000170	0.000098	-0.000035	0.077869	-0.500577	0.862183	0.896143	0.414112	0.159494	-0.436880	0.760220	0.480835
11059		9.376734	1.562882	5.218039	0.010427	0.013907	-0.002899	1.000000	0.000130	0.000174	-0.000036	0.078246	-0.500544	0.862168	0.895832	0.414780	0.159506	-0.437450	0.759877	0.480858
11060		9.350129	1.549502	5.200793	0.006670	0.011240	-0.001949	1.000000	0.000083	0.000141	-0.000024	0.078692	-0.500540	0.862130	0.895550	0.415414	0.159441	-0.437948	0.759533	0.480948
11061		9.341542	1.578030	5.186603	0.006680	0.009864	-0.003603	1.000000	0.000083	0.000123	-0.000045	0.078990	-0.500450	0.862154	0.895311	0.415940	0.159411	-0.438382	0.759304	0.480914
11062		9.379941	1.527797	5.149465	0.009140	0.009007	-0.003491	1.000000	0.000114	0.000113	-0.000044	0.079361	-0.500388	0.862157	0.894973	0.416655	0.159441	-0.439005	0.758954	0.480899
11063		9.397605	1.564909	5.177709	0.008806	0.010459	-0.003592	1.000000	0.000110	0.000131	-0.000045	0.079695	-0.500341	0.862153	0.894726	0.417197	0.159410	-0.439447	0.758686	0.480917
11064		9.372251	1.565322	5.177125	0.003873	0.013555	-0.002168	1.000000	0.000048	0.000169	-0.000027	0.080115	-0.500344	0.862112	0.894494	0.417732	0.159315	-0.439844	0.758390	0.481021
11065		9.353532	1.575268	5.151206	-0.001393	0.018101	-0.000846	1.000000	-0.000017	0.000226	-0.000011	0.080586	-0.500411	0.862030	0.894358	0.418104	0.159102	-0.440034	0.758141	0.481240
11066		9.360365	1.537058	5.163163	0.001919	0.009749	-0.000056	1.000000	0.000024	0.000122	-0.000001	0.081035	-0.500356	0.862019	0.894187	0.418551	0.158887	-0.440299	0.757931	0.481329
11067		9.352628	1.526696	5.190703	0.003266	0.000766	0.001599	1.000000	0.000041	0.000010	0.000020	0.081445	-0.500132	0.862111	0.893964	0.419105	0.158679	-0.440675	0.757773	0.481234
11068		9.386985	1.538346	5.230115	0.003093	0.002181	0.002374	1.000000	0.000039	0.000027	0.000030	0.081768	-0.499810	0.862267	0.893750	0.419633	0.158486	-0.441049	0.757692	0.481018
11069		9.365944	1.553591	5.254884	-0.001233	0.017169	0.001479	1.000000	-0.000015	0.000215	0.000018	0.082296	-0.499850	0.862193	0.893578	0.420089	0.158252	-0.441301	0.757413	0.481227
11070		9.351892	1.551134	5.199255	0.011593	0.012241	-0.006073	1.000000	0.000145	0.000153	-0.000076	0.082644	-0.499920	0.862120	0.893287	0.420684	0.158312	-0.441823	0.757037	0.481339
11071		9.322648	1.529358	5.214448	0.003972	-0.012370	0.004728	1.000000	0.000050	-0.000155	0.000059	0.082908	-0.499346	0.862427	0.893043	0.421292	0.158077	-0.442268	0.757078	0.480866
11072		9.401404	1.542304	5.196762	0.000446	0.005835	0.004686	1.000000	0.000006	0.000073	0.000059	0.083400	-0.499153	0.862491	0.892836	0.421835	0.157796	-0.442593	0.756903	0.480842
11073		9.383665	1.562270	5.017556	0.012073	0.010333	-0.000541	1.000000	0.000151	0.000129	-0.000007	0.083784	-0.499093	0.862489	0.892584	0.422397	0.157719	-0.443029	0.756629	0.480872
11074		9.345265	1.552831	5.212738	0.012793	-0.002381	-0.001966	1.000000	0.000160	-0.000030	-0.000025	0.084011	-0.498780	0.862648	0.892228	0.423131	0.157761	-0.443701	0.756425	0.480573
11075		9.345093	1.555057	5.212383	0.008849	0.002936	-0.005021	1.000000	0.000111	0.000037	-0.000063	0.084234	-0.498645	0.862704	0.892016	0.423588	0.157739	-0.444086	0.756258	0.480479
11076		9.340919	1.534801	5.157055	-0.002490	0.006109	0.001109	1.000000	-0.000031	0.000076	0.000014	0.084662	-0.498522	0.862733	0.891896	0.423948	0.157451	-0.444246	0.756138	0.480522
11077		9.386230	1.547669	5.172237	-0.000516	0.002657	0.002950	1.000000	-0.000006	0.000033	0.000037	0.085021	-0.498250	0.862855	0.891745	0.424365	0.157179	-0.444480	0.756083	0.480392
11078		9.438679	1.570933	5.161007	-0.002819	0.005970	0.001632	1.000000	-0.000035	0.000075	0.000020	0.085389	-0.498072	0.862921	0.891633	0.424702	0.156905	-0.444634	0.756011	0.480363
11079		9.352846	1.542145	5.175257	0.001770	0.007508	-0.001140	1.000000	0.000022	0.000094	-0.000014	0.085794	-0.498043	0.862898	0.891487	0.425079	0.156709	-0.444848	0.755818	0.480468
11080		9.353411	1.553432	5.248104	-0.006788	0.014950	0.000425	1.000000	-0.000085	0.000187	0.000005	0.086298	-0.498047	0.862845	0.891318	0.425522	0.156472	-0.445090	0.755566	0.480640
11081		9.318565	1.550727	5.198546	-0.004641	0.013475	-0.002038	1.000000	-0.000058	0.000168	-0.000025	0.086671	-0.498042	0.862810	0.891218	0.425807	0.156265	-0.445218	0.755408	0.480770
11082		9.362738	1.547809	5.251886	-0.001823	0.006603	-0.002217	1.000000	-0.000023	0.000083	-0.000028	0.086951	-0.497951	0.862835	0.891170	0.425991	0.156038	-0.445259	0.755365	0.480800
11083		9.374024	1.563982	5.245561	-0.003308	0.010163	-0.003706	1.000000	-0.000041	0.000127	-0.000046	0.087269	-0.497914	0.862824	0.891045	0.426307	0.155887	-0.445447	0.755211	0.480867
11084		9.376885	1.551218	5.219330	-0.006107	0.014066	-0.004554	1.000000	-0.000076	0.000176	-0.000057	0.087596	-0.498000	0.862742	0.891056	0.426373	0.155645	-0.445361	0.755117	0.481094
11085		9.370445	1.539445	5.228179	-0.005466	0.018224	-0.006027	1.000000	-0.000068	0.000228	-0.000075	0.087916	-0.498135	0.862631	0.891006	0.426531	0.155497	-0.445397	0.754939	0.481340
11086		9.351481	1.528930	5.209020	-0.003325	0.017441	-0.007663	1.000000	-0.000042	0.000218	-0.000096	0.088203	-0.498343	0.862482	0.891051	0.426505	0.155310	-0.445251	0.754817	0.481668
11087		9.352074	1.528951	5.191379	-0.000030	0.015450	-0.009364	1.000000	-0.000000	0.000193	-0.000117	0.088418	-0.498425	0.862412	0.890882	0.426843	0.155354	-0.445547	0.754571	0.481778
11088		9.363409	1.540167	5.209438	0.002263	0.015321	-0.009296	1.000000	0.000028	0.000192	-0.000116	0.088677	-0.498549	0.862314	0.890680	0.427242	0.155416	-0.445899	0.754264	0.481934
11089		9.378990	1.559576	5.192532	0.003880	0.019693	-0.010060	1.000000	0.000049	0.000246	-0.000126	0.088934	-0.498717	0.862190	0.890440	0.427694	0.155543	-0.446326	0.753896	0.482114
11090		9.361693	1.578898	5.207069	0.003545	0.021150	-0.010165	1.000000	0.000044	0.000264	-0.000127	0.089237	-0.498927	0.862038	0.890186	0.428177	0.155668	-0.446772	0.753483	0.482347
11091		9.342236	1.574757	5.218018	0.003597	0.013610	-0.011590	1.000000	0.000045	0.000170	-0.000145	0.089397	-0.499008	0.861974	0.889978	0.428563	0.155800	-0.447155	0.753209	0.482418
11092		9.334820	1.534961	5.245434	0.004752	0.009907	-0.009575	1.000000	0.000059	0.000124	-0.000120	0.089522	-0.499042	0.861941	0.889874	0.428769	0.155824	-0.447337	0.753069	0.482469
11093		9.363359	1.537436	5.291545	0.007050	0.008185	-0.008877	1.000000	0.000088	0.000102	-0.000111	0.089669	-0.499007	0.861946	0.889660	0.429180	0.155913	-0.447732	0.752859	0.482431
11094		9.360779	1.565716	5.318540	0.003408	0.015725	-0.009995	1.000000	0.000043	0.000197	-0.000125	0.089935	-0.499140	0.861842	0.889415	0.429650	0.156021	-0.448166	0.752503	0.482583
11095		9.303209	1.578590	5.197073	0.015447	0.008067	-0.015257	1.000000	0.000193	0.000101	-0.000191	0.089922	-0.499158	0.861832	0.889113	0.430149	0.156366	-0.448768	0.752206	0.482488
11096		9.321666	1.538786	5.278122	0.010587	-0.008665	-0.007149	1.000000	0.000132	-0.000108	-0.000089	0.089947	-0.498805	0.862034	0.888832	0.430691	0.156471	-0.449319	0.752129	0.482093
11097		9.440602	1.586399	5.334632	0.009338	0.001260	-0.001739	1.000000	0.000117	0.000016	-0.000022	0.090189	-0.498573	0.862143	0.888544	0.431289	0.156461	-0.449840	0.751941	0.481901
11098		9.368482	1.574224	5.043778	0.009415	0.016056	-0.003411	1.000000	0.000118	0.000201	-0.000043	0.090538	-0.498626	0.862076	0.888286	0.431816	0.156472	-0.450279	0.751603	0.482018
11099		9.311134	1.604712	5.264051	0.012861	-0.007408	-0.005423	1.000000	0.000161	-0.000093	-0.000068	0.090608	-0.498269	0.862275	0.887959	0.432447	0.156584	-0.450909	0.751477	0.481625
11100		9.355466	1.551258	5.256054	0.011336	-0.000175	-0.005074	1.000000	0.000142	-0.000002	-0.000063	0.090759	-0.498051	0.862385	0.887678	0.433000	0.156649	-0.451432	0.751303	0.481407
11101		9.347262	1.544852	5.229111	0.005051	0.003733	0.000067	1.000000	0.000063	0.000047	0.000001	0.091015	-0.497842	0.862479	0.887497	0.433416	0.156522	-0.451735	0.751202	0.481281
11102		9.374935	1.574914	5.191579	0.005672	0.004285	0.004404	1.000000	0.000071	0.000054	0.000055	0.091386	-0.497596	0.862582	0.887287	0.433921	0.156312	-0.452073	0.751073	0.481165
11103		9.402048	1.588333	5.191254	0.007784	0.008075	0.003165	1.000000	0.000097	0.000101	0.000040	0.091894	-0.497556	0.862551	0.887074	0.434435	0.156094	-0.452388	0.750802	0.481291
11104		9.321008	1.530377	5.211765	0.014204	0.002116	0.004091	1.000000	0.000178	0.000026	0.000051	0.092227	-0.497254	0.862689	0.886741	0.435143	0.156018	-0.452973	0.750592	0.481068
11105		9.370185	1.561181	5.251860	0.011067	0.002478	0.007289	1.000000	0.000138	0.000031	0.000091	0.092711	-0.496949	0.862813	0.886386	0.435929	0.155836	-0.453568	0.750338	0.480904
11106		9.359279	1.591961	5.203665	0.007472	0.003154	0.005574	1.000000	0.000093	0.000039	0.000070	0.093146	-0.496721	0.862898	0.886159	0.436476	0.155597	-0.453923	0.750172	0.480829
11107		9.371897	1.585517	5.201982	-0.001063	0.001928	0.009425	1.000000	-0.000013	0.000024	0.000118	0.093702	-0.496394	0.863026	0.885902	0.437125	0.155239	-0.454310	0.750010	0.480716
11108		9.376786	1.588688	5.221317	-0.001914	0.008751	0.007897	1.000000	-0.000024	0.000109	0.000099	0.094175	-0.496206	0.863082	0.885808	0.437454	0.154847	-0.454395	0.749942	0.480741
11109		9.350204	1.558583	5.271337	-0.005587	0.013373	0.013408	1.000000	-0.000070	0.000167	0.000168	0.094851	-0.496096	0.863071	0.885789	0.437706	0.154247	-0.454292	0.749868	0.480953
11110		9.354054	1.541572	5.244956	-0.006044	0.008696	0.012662	1.000000	-0.000076	0.000109	0.000158	0.095541	-0.495922	0.863095	0.885693	0.438098	0.153683	-0.454335	0.749754	0.481091
11111		9.352174	1.528328	5.260554	-0.006990	0.003912	0.011561	1.000000	-0.000087	0.000049	0.000145	0.096068	-0.495558	0.863246	0.885545	0.438562	0.153212	-0.454512	0.749724	0.480970
11112		9.358435	1.542155	5.212194	-0.008596	0.001343	0.009422	1.000000	-0.000107	0.000017	0.000118	0.096533	-0.495208	0.863395	0.885452	0.438913	0.152744	-0.454595	0.749750	0.480853
11113		9.383165	1.533697	5.239283	-0.004166	0.003617	0.006608	1.000000	-0.000052	0.000045	0.000083	0.096932	-0.494919	0.863516	0.885340	0.439264	0.152380	-0.454727	0.749735	0.480750
11114		9.360189	1.539993	5.224189	-0.006831	0.012966	0.005558	1.000000	-0.000085	0.000162	0.000069	0.097422	-0.494799	0.863529	0.885224	0.439619	0.152031	-0.454848	0.749606	0.480836
11115		9.365304	1.552436	5.232043	-0.011920	0.015409	0.005248	1.000000	-0.000149	0.000193	0.000066	0.098019	-0.494787	0.863468	0.885136	0.439939	0.151617	-0.454891	0.749426	0.481077
11116		9.335401	1.521647	5.219808	-0.013702	0.006077	0.009302	1.000000	-0.000171	0.000076	0.000116	0.098489	-0.494508	0.863575	0.885127	0.440139	0.151090	-0.454808	0.749493	0.481051
11117		9.351191	1.511102	5.197254	-0.008754	-0.000212	0.009167	1.000000	-0.000109	-0.000003	0.000115	0.098913	-0.494162	0.863725	0.885102	0.440362	0.150583	-0.454764	0.749590	0.480941
11118		9.375667	1.485401	5.260816	-0.007636	0.002253	0.010951	1.000000	-0.000095	0.000028	0.000137	0.099445	-0.493821	0.863859	0.884988	0.440762	0.150082	-0.454870	0.749580	0.480857
11119		9.371048	1.509421	5.309013	-0.007348	0.014948	0.007678	1.000000	-0.000092	0.000187	0.000096	0.100045	-0.493722	0.863846	0.884826	0.441218	0.149698	-0.455053	0.749377	0.481000
11120		9.307819	1.519978	5.231645	-0.002384	0.014555	0.001926	1.000000	-0.000030	0.000182	0.000024	0.100515	-0.493706	0.863800	0.884655	0.441636	0.149476	-0.455282	0.749141	0.481150
11121		9.329644	1.468542	5.262285	-0.003764	-0.006777	0.003648	1.000000	-0.000047	-0.000085	0.000046	0.100745	-0.493301	0.864005	0.884587	0.441884	0.149147	-0.455364	0.749262	0.480885
11122		9.437240	1.513780	5.374537	-0.007087	-0.007485	0.009693	1.000000	-0.000089	-0.000094	0.000121	0.101099	-0.492802	0.864248	0.884516	0.442186	0.148668	-0.455423	0.749412	0.480596
11123		9.389336	1.506270	5.063781	-0.004348	0.018020	0.000074	1.000000	-0.000054	0.000225	0.000001	0.101588	-0.492922	0.864123	0.884416	0.442468	0.148424	-0.455508	0.749166	0.480898
11124		9.329136	1.522700	5.216029	-0.000174	0.005516	-0.001938	1.000000	-0.000002	0.000069	-0.000024	0.101827	-0.492806	0.864160	0.884319	0.442716	0.148266	-0.455644	0.749096	0.480878
11125		9.359614	1.495027	5.290136	0.002476	0.000946	-0.002776	1.000000	0.000031	0.000012	-0.000035	0.102003	-0.492584	0.864266	0.884147	0.443086	0.148185	-0.455937	0.749023	0.480713
11126		9.349971	1.452320	5.254091	-0.000244	0.012866	0.001754	1.000000	-0.000003	0.000161	0.000022	0.102465	-0.492570	0.864220	0.883981	0.443491	0.147964	-0.456156	0.748793	0.480864
11127		9.364979	1.479546	5.244324	-0.000288	0.015639	0.005052	1.000000	-0.000004	0.000195	0.000063	0.103015	-0.492570	0.864154	0.883819	0.443911	0.147671	-0.456346	0.748544	0.481073
11128		9.417834	1.488920	5.282495	0.002330	0.020439	0.002722	1.000000	0.000029	0.000255	0.000034	0.103519	-0.492677	0.864033	0.883679	0.444264	0.147450	-0.456504	0.748264	0.481358
11129		9.347127	1.465117	5.208225	0.001020	0.021689	0.001901	1.000000	0.000013	0.000271	0.000024	0.104060	-0.492818	0.863888	0.883508	0.444670	0.147246	-0.456711	0.747930	0.481681
11130		9.330983	1.460085	5.365069	0.007125	0.009388	0.003600	1.000000	0.000089	0.000117	0.000045	0.104491	-0.492665	0.863923	0.883206	0.445311	0.147122	-0.457196	0.747649	0.481656
11131		9.335289	1.487027	5.240923	0.005202	0.004387	0.001784	1.000000	0.000065	0.000055	0.000022	0.104787	-0.492488	0.863988	0.883041	0.445693	0.146955	-0.457447	0.747538	0.481590
11132		9.380745	1.500593	5.255862	-0.000165	-0.000869	0.000575	1.000000	-0.000002	-0.000011	0.000007	0.105032	-0.492246	0.864096	0.882926	0.445991	0.146745	-0.457614	0.747520	0.481460
11133		9.356156	1.506285	5.229481	-0.001473	0.000378	-0.000245	1.000000	-0.000018	0.000005	-0.000003	0.105265	-0.492037	0.864187	0.882846	0.446222	0.146525	-0.457715	0.747519	0.481365
11134		9.359470	1.480308	5.268319	-0.007901	0.004559	0.001718	1.000000	-0.000099	0.000057	0.000021	0.105561	-0.491834	0.864267	0.882789	0.446431	0.146230	-0.457756	0.747529	0.481311
11135		9.358991	1.478645	5.269638	-0.010359	0.003824	0.002214	1.000000	-0.000129	0.000048	0.000028	0.105872	-0.491606	0.864358	0.882741	0.446633	0.145900	-0.457776	0.747558	0.481247
11136		9.360085	1.465324	5.263485	-0.012166	0.005660	0.001862	1.000000	-0.000152	0.000071	0.000023	0.106225	-0.491411	0.864425	0.882672	0.446877	0.145574	-0.457828	0.747540	0.481225
11137		9.377849	1.438780	5.256767	-0.005920	0.006096	-0.000587	1.000000	-0.000074	0.000076	-0.000007	0.106516	-0.491266	0.864472	0.882571	0.447146	0.145360	-0.457956	0.747475	0.481205
11138		9.365907	1.453020	5.246783	-0.004448	0.007315	-0.000971	1.000000	-0.000056	0.000091	-0.000012	0.106829	-0.491157	0.864495	0.882457	0.447435	0.145159	-0.458102	0.747373	0.481224
11139		9.346259	1.478050	5.257269	-0.005579	0.008739	-0.003191	1.000000	-0.000070	0.000109	-0.000040	0.107094	-0.491118	0.864485	0.882391	0.447623	0.144984	-0.458167	0.747287	0.481296
11140		9.355246	1.470129	5.248096	-0.006717	0.006064	-0.002701	1.000000	-0.000084	0.000076	-0.000034	0.107349	-0.491018	0.864510	0.882311	0.447839	0.144801	-0.458261	0.747223	0.481305
11141		9.349688	1.485403	5.224635	-0.005713	-0.001505	-0.001125	1.000000	-0.000071	-0.000019	-0.000014	0.107542	-0.490774	0.864625	0.882258	0.448019	0.144567	-0.458318	0.747275	0.481170
11142		9.344495	1.462688	5.242412	-0.010923	-0.008391	-0.000834	1.000000	-0.000137	-0.000105	-0.000010	0.107625	-0.490392	0.864831	0.882289	0.448055	0.144267	-0.458239	0.747504	0.480889
11143		9.358521	1.456295	5.238198	-0.012203	-0.013321	-0.001422	1.000000	-0.000153	-0.000167	-0.000018	0.107745	-0.489929	0.865078	0.882228	0.448265	0.143990	-0.458329	0.747682	0.480527
11144		9.379582	1.441188	5.297946	-0.011590	-0.007070	-0.000420	1.000000	-0.000145	-0.000088	-0.000005	0.107902	-0.489575	0.865259	0.882215	0.448386	0.143686	-0.458315	0.747841	0.480292
11145		9.344193	1.439988	5.265846	-0.007358	0.002802	-0.002677	1.000000	-0.000092	0.000035	-0.000033	0.108066	-0.489389	0.865344	0.882169	0.448537	0.143500	-0.458366	0.747872	0.480195
11146		9.379178	1.464831	5.238461	0.002061	-0.001714	-0.008707	1.000000	0.000026	-0.000021	-0.000109	0.108135	-0.489260	0.865408	0.882032	0.448801	0.143519	-0.458614	0.747798	0.480074
11147		9.383632	1.420774	5.364453	-0.003237	-0.016746	0.004652	1.000000	-0.000040	-0.000209	0.000058	0.108298	-0.488641	0.865738	0.881868	0.449215	0.143231	-0.458891	0.747955	0.479565
11148		9.386654	1.446932	5.175350	0.001101	0.006351	0.001361	1.000000	0.000014	0.000079	0.000017	0.108611	-0.488492	0.865782	0.881710	0.449582	0.143054	-0.459121	0.747831	0.479538
11149		9.353109	1.454490	5.182501	0.012991	-0.008613	-0.000776	1.000000	0.000162	-0.000108	-0.000010	0.108769	-0.488150	0.865956	0.881444	0.450114	0.143020	-0.459594	0.747735	0.479235
11150		9.336218	1.479869	5.241296	0.016183	-0.013347	-0.006640	1.000000	0.000202	-0.000167	-0.000083	0.108673	-0.487778	0.866177	0.881220	0.450513	0.143141	-0.460045	0.747737	0.478798
11151		9.357114	1.450904	5.252358	0.012382	-0.010754	-0.004489	1.000000	0.000155	-0.000134	-0.000056	0.108712	-0.487367	0.866403	0.880886	0.451134	0.143242	-0.460676	0.747630	0.478359
11152		9.364625	1.470503	5.200573	0.009556	-0.007953	-0.001624	1.000000	0.000119	-0.000099	-0.000020	0.108774	-0.486988	0.866609	0.880658	0.451583	0.143228	-0.461097	0.747606	0.477990
11153		9.399940	1.479887	5.207804	0.011853	-0.003986	-0.004255	1.000000	0.000148	-0.000050	-0.000053	0.108840	-0.486736	0.866742	0.880429	0.452013	0.143279	-0.461518	0.747511	0.477733
11154		9.392003	1.474571	5.180240	0.010357	0.003473	-0.006187	1.000000	0.000129	0.000043	-0.000077	0.108911	-0.486605	0.866807	0.880206	0.452416	0.143381	-0.461927	0.747352	0.477585
11155		9.356731	1.493903	5.248528	0.016499	-0.003613	-0.010933	1.000000	0.000206	-0.000045	-0.000137	0.108884	-0.486453	0.866895	0.879917	0.452900	0.143623	-0.462483	0.747158	0.477352
11156		9.335145	1.485163	5.235610	0.009110	-0.007629	-0.006536	1.000000	0.000114	-0.000095	-0.000082	0.108889	-0.486119	0.867082	0.879632	0.453417	0.143738	-0.463023	0.747062	0.476978
11157		9.343977	1.491618	5.230559	0.006819	-0.003400	-0.009325	1.000000	0.000085	-0.000043	-0.000117	0.108900	-0.485949	0.867176	0.879448	0.453745	0.143829	-0.463371	0.746973	0.476780
11158		9.403377	1.495698	5.265009	0.001559	-0.002726	-0.007612	1.000000	0.000019	-0.000034	-0.000095	0.108926	-0.485743	0.867288	0.879297	0.454030	0.143855	-0.463651	0.746934	0.476568
11159		9.389305	1.509671	5.244397	-0.004347	0.003570	-0.010473	1.000000	-0.000054	0.000045	-0.000131	0.108912	-0.485663	0.867335	0.879242	0.454128	0.143882	-0.463759	0.746926	0.476475
11160		9.358213	1.492810	5.291664	-0.008297	0.007095	-0.010653	1.000000	-0.000104	0.000089	-0.000133	0.108964	-0.485685	0.867316	0.879248	0.454128	0.143842	-0.463734	0.746913	0.476521
11161		9.345017	1.473690	5.271330	-0.009779	0.006569	-0.009444	1.000000	-0.000122	0.000082	-0.000118	0.108984	-0.485684	0.867314	0.879324	0.454012	0.143747	-0.463586	0.746984	0.476553
11162		9.353140	1.473763	5.238682	-0.008286	0.002308	-0.008768	1.000000	-0.000104	0.000029	-0.000110	0.109081	-0.485579	0.867361	0.879240	0.454189	0.143696	-0.463722	0.746944	0.476484
11163		9.384579	1.479733	5.239401	-0.004187	0.001944	-0.008968	1.000000	-0.000052	0.000024	-0.000112	0.109096	-0.485516	0.867394	0.879255	0.454180	0.143636	-0.463691	0.746991	0.476441
11164		9.401947	1.498056	5.219976	-0.003737	0.008227	-0.008847	1.000000	-0.000047	0.000103	-0.000111	0.109198	-0.485553	0.867360	0.879219	0.454259	0.143606	-0.463734	0.746919	0.476512
11165		9.393753	1.519882	5.229862	-0.002175	0.021077	-0.009650	1.000000	-0.000027	0.000263	-0.000121	0.109389	-0.485799	0.867199	0.879152	0.454376	0.143642	-0.463816	0.746687	0.476795
11166		9.348531	1.506102	5.198400	-0.005766	0.017663	-0.008665	1.000000	-0.000072	0.000221	-0.000108	0.109646	-0.485996	0.867056	0.879082	0.454526	0.143602	-0.463889	0.746467	0.477067
11167		9.358450	1.509455	5.176120	-0.001420	0.004215	-0.008339	1.000000	-0.000018	0.000053	-0.000104	0.109764	-0.485961	0.867061	0.878981	0.454725	0.143586	-0.464051	0.746369	0.477063
11168		9.363425	1.474225	5.206847	-0.003695	-0.002049	-0.005905	1.000000	-0.000046	-0.000026	-0.000074	0.109884	-0.485761	0.867157	0.878854	0.454994	0.143511	-0.464264	0.746335	0.476910
11169		9.401317	1.478217	5.248111	-0.003411	0.003366	-0.005208	1.000000	-0.000043	0.000042	-0.000065	0.110033	-0.485619	0.867218	0.878717	0.455278	0.143451	-0.464487	0.746255	0.476818
11170		9.379443	1.494474	5.273174	-0.005641	0.019017	-0.006137	1.000000	-0.000071	0.000238	-0.000077	0.110232	-0.485810	0.867086	0.878758	0.455234	0.143342	-0.464364	0.746157	0.477091
11171		9.350643	1.537165	5.197982	0.004010	0.006929	-0.012705	1.000000	0.000050	0.000087	-0.000159	0.110219	-0.485853	0.867063	0.878637	0.455418	0.143500	-0.464596	0.746017	0.477084
11172		9.374573	1.475186	5.273393	-0.002681	-0.006420	-0.005586	1.000000	-0.000034	-0.000080	-0.000070	0.110188	-0.485547	0.867239	0.878563	0.455578	0.143441	-0.464743	0.746118	0.476783
11173		9.401107	1.454471	5.262209	0.000104	0.011849	-0.002696	1.000000	0.000001	0.000148	-0.000034	0.110528	-0.485624	0.867152	0.878462	0.455818	0.143298	-0.464852	0.745922	0.476983
11174		9.362034	1.509997	5.090645	0.007576	0.010141	-0.011410	1.000000	0.000095	0.000127	-0.000143	0.110573	-0.485691	0.867109	0.878272	0.456124	0.143491	-0.465201	0.745691	0.477003
11175		9.365656	1.518415	5.247390	0.004868	0.002600	-0.013264	1.000000	0.000061	0.000032	-0.000166	0.110540	-0.485697	0.867110	0.878155	0.456301	0.143642	-0.465430	0.745578	0.476957
11176		9.336192	1.474031	5.238755	0.005857	0.004628	-0.015459	1.000000	0.000073	0.000058	-0.000193	0.110451	-0.485717	0.867110	0.877990	0.456538	0.143896	-0.465761	0.745420	0.476880
11177		9.340777	1.499117	5.221185	0.000048	0.005446	-0.008727	1.000000	0.000001	0.000068	-0.000109	0.110569	-0.485701	0.867104	0.877861	0.456778	0.143920	-0.465977	0.745284	0.476883
11178		9.377428	1.528204	5.203851	0.001058	0.005182	-0.011118	1.000000	0.000013	0.000065	-0.000139	0.110594	-0.485740	0.867079	0.877808	0.456864	0.143974	-0.466071	0.745206	0.476913
11179		9.399819	1.510606	5.215431	-0.003275	0.010638	-0.008307	1.000000	-0.000041	0.000133	-0.000104	0.110726	-0.485795	0.867031	0.877740	0.456998	0.143961	-0.466167	0.745088	0.477004
11180		9.346527	1.498503	5.215865	0.004462	0.012543	-0.013415	1.000000	0.000056	0.000157	-0.000168	0.110745	-0.485950	0.866942	0.877631	0.457152	0.144139	-0.466369	0.744892	0.477112
11181		9.353599	1.502625	5.267739	0.003484	0.004808	-0.007878	1.000000	0.000044	0.000060	-0.000098	0.110775	-0.485868	0.866984	0.877485	0.457407	0.144219	-0.466636	0.744789	0.477012
11182		9.358468	1.506087	5.256298	0.005453	0.005449	-0.008729	1.000000	0.000068	0.000068	-0.000109	0.110842	-0.485844	0.866989	0.877326	0.457683	0.144313	-0.466920	0.744636	0.476973
11183		9.369970	1.524565	5.249118	0.005275	0.005270	-0.007328	1.000000	0.000066	0.000066	-0.000092	0.110910	-0.485796	0.867007	0.877183	0.457936	0.144376	-0.467172	0.744511	0.476922
11184		9.368690	1.547459	5.244346	-0.000484	0.007421	-0.006613	1.000000	-0.000006	0.000093	-0.000083	0.111105	-0.485782	0.866990	0.877028	0.458237	0.144363	-0.467416	0.744335	0.476957
11185		9.370002	1.530134	5.261786	-0.002521	0.011149	-0.003092	1.000000	-0.000032	0.000139	-0.000039	0.111367	-0.485800	0.866947	0.876942	0.458441	0.144240	-0.467515	0.744198	0.477073
11186		9.338699	1.549332	5.267312	-0.005123	0.011349	-0.004935	1.000000	-0.000064	0.000142	-0.000062	0.111638	-0.485852	0.866882	0.876862	0.458631	0.144120	-0.467600	0.744047	0.477226
11187		9.351926	1.533456	5.259601	-0.007819	0.003798	-0.006787	1.000000	-0.000098	0.000047	-0.000085	0.111679	-0.485741	0.866939	0.876846	0.458685	0.144043	-0.467620	0.744086	0.477146
11188		9.348617	1.531387	5.251765	-0.006028	0.004260	-0.006236	1.000000	-0.000075	0.000053	-0.000078	0.111749	-0.485664	0.866973	0.876839	0.458729	0.143952	-0.467618	0.744109	0.477111
11189		9.375761	1.524709	5.257859	-0.004067	0.003993	-0.005631	1.000000	-0.000051	0.000050	-0.000070	0.111904	-0.485577	0.867002	0.876738	0.458944	0.143877	-0.467768	0.744033	0.477082
11190		9.367500	1.552050	5.243406	-0.007921	0.012064	-0.004551	1.000000	-0.000099	0.000151	-0.000057	0.112190	-0.485637	0.866932	0.876678	0.459105	0.143730	-0.467813	0.743895	0.477254
11191		9.347018	1.537919	5.214134	-0.009395	0.014952	-0.006885	1.000000	-0.000117	0.000187	-0.000086	0.112455	-0.485755	0.866831	0.876613	0.459259	0.143636	-0.467872	0.743723	0.477465
11192		9.341166	1.525749	5.222008	-0.010824	0.008229	-0.005442	1.000000	-0.000135	0.000103	-0.000068	0.112610	-0.485756	0.866810	0.876661	0.459224	0.143457	-0.467745	0.743744	0.477557
11193		9.320822	1.498868	5.257261	-0.009749	-0.004848	-0.002797	1.000000	-0.000122	-0.000061	-0.000035	0.112728	-0.485490	0.866944	0.876638	0.459335	0.143239	-0.467759	0.743849	0.477379
11194		9.356953	1.498535	5.288461	-0.010908	-0.006151	-0.000658	1.000000	-0.000136	-0.000077	-0.000008	0.112831	-0.485154	0.867119	0.876638	0.459417	0.142975	-0.467733	0.744017	0.477141
11195		9.377743	1.513950	5.331107	-0.015145	0.008878	-0.000745	1.000000	-0.000189	0.000111	-0.000009	0.113150	-0.485099	0.867108	0.876645	0.459499	0.142670	-0.467644	0.744002	0.477252
11196		9.352162	1.542527	5.246603	-0.004051	0.000797	-0.004374	1.000000	-0.000051	0.000010	-0.000055	0.113233	-0.484941	0.867186	0.876592	0.459630	0.142570	-0.467722	0.744025	0.477140
11197		9.357149	1.512363	5.253360	-0.010893	-0.009354	0.000595	1.000000	-0.000136	-0.000117	0.000007	0.113248	-0.484543	0.867406	0.876668	0.459580	0.142269	-0.467577	0.744315	0.476830
11198		9.356911	1.479587	5.271871	-0.014070	-0.006712	0.003976	1.000000	-0.000176	-0.000084	0.000050	0.113408	-0.484123	0.867619	0.876685	0.459662	0.141894	-0.467506	0.744537	0.476553
11199		9.320522	1.510745	5.103578	-0.004895	0.000329	-0.001930	1.000000	-0.000061	0.000004	-0.000024	0.113552	-0.483927	0.867710	0.876621	0.459834	0.141734	-0.467592	0.744558	0.476436
11200		9.375709	1.558274	5.231422	-0.003429	-0.011251	-0.005833	1.000000	-0.000043	-0.000141	-0.000073	0.113475	-0.483538	0.867937	0.876517	0.460043	0.141699	-0.467805	0.744682	0.476033
11201		9.349077	1.524972	5.236766	-0.004094	-0.006509	-0.008954	1.000000	-0.000051	-0.000081	-0.000112	0.113339	-0.483280	0.868099	0.876480	0.460109	0.141714	-0.467907	0.744809	0.475733
11202		9.350655	1.500199	5.211166	-0.007788	-0.005109	-0.002195	1.000000	-0.000097	-0.000064	-0.000027	0.113409	-0.482982	0.868255	0.876448	0.460226	0.141530	-0.467950	0.744930	0.475503
11203		9.362820	1.519677	5.232910	-0.007837	-0.003038	0.000284	1.000000	-0.000098	-0.000038	0.000004	0.113589	-0.482721	0.868376	0.876420	0.460360	0.141268	-0.467959	0.745016	0.475359
11204		9.408529	1.513716	5.200548	-0.014913	0.000363	0.000176	1.000000	-0.000186	0.000005	0.000002	0.113722	-0.482495	0.868485	0.876506	0.460294	0.140948	-0.467765	0.745204	0.475255
11205		9.363583	1.491250	5.209810	-0.010051	0.006444	-0.000405	1.000000	-0.000126	0.000081	-0.000005	0.114004	-0.482404	0.868498	0.876482	0.460419	0.140686	-0.467741	0.745185	0.475309
11206		9.336540	1.466580	5.288406	-0.008380	0.000532	0.001777	1.000000	-0.000105	0.000007	0.000022	0.114223	-0.482157	0.868607	0.876433	0.460595	0.140420	-0.467781	0.745236	0.475189
11207		9.336296	1.486339	5.282730	-0.005422	0.000694	0.000819	1.000000	-0.000068	0.000009	0.000010	0.114392	-0.481923	0.868714	0.876381	0.460759	0.140206	-0.467836	0.745286	0.475056
11208		9.373759	1.533879	5.258390	-0.001443	-0.001004	-0.001902	1.000000	-0.000018	-0.000013	-0.000024	0.114516	-0.481689	0.868828	0.876255	0.461029	0.140106	-0.468043	0.745270	0.474877
11209		9.385322	1.533323	5.287395	-0.005083	0.004268	-0.003236	1.000000	-0.000064	0.000053	-0.000040	0.114654	-0.481586	0.868867	0.876214	0.461145	0.139976	-0.468084	0.745265	0.474845
11210		9.361685	1.527615	5.254789	-0.003997	0.007421	-0.000612	1.000000	-0.000050	0.000093	-0.000008	0.114885	-0.481523	0.868871	0.876174	0.461280	0.139788	-0.468104	0.745222	0.474892
11211		9.333326	1.492535	5.263686	-0.005293	0.005464	-0.000182	1.000000	-0.000066	0.000068	-0.000002	0.115140	-0.481428	0.868890	0.876127	0.461434	0.139569	-0.468128	0.745188	0.474922
11212		9.359620	1.491503	5.247149	-0.004151	0.004945	0.000588	1.000000	-0.000052	0.000062	0.000007	0.115437	-0.481292	0.868926	0.876000	0.461735	0.139375	-0.468293	0.745090	0.474913
11213		9.379512	1.475731	5.225860	-0.004750	0.001897	-0.001678	1.000000	-0.000059	0.000024	-0.000021	0.115614	-0.481126	0.868994	0.875918	0.461936	0.139219	-0.468402	0.745072	0.474834
11214		9.361994	1.489336	5.227544	-0.000374	0.005356	-0.000531	1.000000	-0.000005	0.000067	-0.000007	0.115835	-0.481039	0.869013	0.875846	0.462121	0.139060	-0.468483	0.745014	0.474846
11215		9.369517	1.493319	5.225618	-0.000690	0.007039	-0.002917	1.000000	-0.000009	0.000088	-0.000036	0.115961	-0.481007	0.869014	0.875827	0.462188	0.138955	-0.468486	0.744993	0.474875
11216		9.362103	1.513852	5.234222	-0.001712	0.011418	-0.003233	1.000000	-0.000021	0.000143	-0.000040	0.116224	-0.481032	0.868965	0.875695	0.462462	0.138880	-0.468669	0.744807	0.474986
11217		9.353806	1.520284	5.226360	-0.003495	0.009357	-0.003162	1.000000	-0.000044	0.000117	-0.000040	0.116448	-0.481011	0.868947	0.875588	0.462692	0.138789	-0.468813	0.744677	0.475047
11218		9.344035	1.481882	5.220514	-0.003112	0.002396	-0.002005	1.000000	-0.000039	0.000030	-0.000025	0.116624	-0.480845	0.869015	0.875461	0.462964	0.138679	-0.469006	0.744616	0.474953
11219		9.351740	1.468652	5.253864	-0.002601	-0.002311	0.000233	1.000000	-0.000033	-0.000029	0.000003	0.116800	-0.480583	0.869136	0.875345	0.463234	0.138508	-0.469178	0.744617	0.474782
11220		9.384702	1.501627	5.288475	-0.000212	0.008751	-0.003184	1.000000	-0.000003	0.000109	-0.000040	0.116977	-0.480544	0.869134	0.875218	0.463487	0.138466	-0.469371	0.744484	0.474798
11221		9.331540	1.487727	5.288952	0.000385	0.016838	-0.005078	1.000000	0.000005	0.000210	-0.000063	0.117276	-0.480726	0.868993	0.875107	0.463709	0.138423	-0.469504	0.744228	0.475069
11222		9.342137	1.487652	5.236558	0.007864	0.010821	-0.008792	1.000000	0.000098	0.000135	-0.000110	0.117278	-0.480813	0.868944	0.874998	0.463870	0.138578	-0.469707	0.744072	0.475113
11223		9.373462	1.454414	5.332698	0.006363	-0.010311	-0.002603	1.000000	0.000080	-0.000129	-0.000033	0.117220	-0.480411	0.869175	0.874805	0.464224	0.138607	-0.470080	0.744111	0.474682
11224		9.375410	1.485413	5.228871	0.004715	0.012079	-0.007067	1.000000	0.000059	0.000151	-0.000088	0.117361	-0.480510	0.869101	0.874665	0.464466	0.138682	-0.470306	0.743896	0.474795
11225		9.363681	1.541410	5.175287	0.012003	-0.002118	-0.014792	1.000000	0.000150	-0.000026	-0.000185	0.117158	-0.480475	0.869148	0.874536	0.464624	0.138965	-0.470596	0.743820	0.474627
11226		9.336922	1.536697	5.269265	0.001343	0.002886	-0.018103	1.000000	0.000017	0.000036	-0.000226	0.116943	-0.480524	0.869149	0.874464	0.464675	0.139245	-0.470783	0.743756	0.474542
11227		9.330581	1.500398	5.240894	-0.001454	0.001078	-0.015643	1.000000	-0.000018	0.000013	-0.000196	0.116819	-0.480505	0.869177	0.874354	0.464822	0.139452	-0.471019	0.743677	0.474431
11228		9.351769	1.515922	5.252475	-0.004268	-0.000042	-0.012356	1.000000	-0.000053	-0.000001	-0.000154	0.116657	-0.480451	0.869229	0.874388	0.464735	0.139525	-0.470996	0.743766	0.474315
11229		9.397429	1.528024	5.237319	-0.004935	0.002190	-0.013396	1.000000	-0.000062	0.000027	-0.000167	0.116475	-0.480439	0.869259	0.874430	0.464624	0.139630	-0.470962	0.743843	0.474227
11230		9.401381	1.496672	5.216185	-0.009117	0.012865	-0.016150	1.000000	-0.000114	0.000161	-0.000202	0.116415	-0.480652	0.869150	0.874473	0.464508	0.139751	-0.470898	0.743779	0.474392
11231		9.331490	1.492998	5.323040	0.001488	0.001946	-0.015773	1.000000	0.000019	0.000024	-0.000197	0.116255	-0.480652	0.869171	0.874367	0.464633	0.139992	-0.471133	0.743700	0.474282
11232		9.315765	1.500978	5.262689	-0.002645	-0.001367	-0.009774	1.000000	-0.000033	-0.000017	-0.000122	0.116136	-0.480520	0.869260	0.874331	0.464682	0.140059	-0.471231	0.743755	0.474100
11233		9.346591	1.536494	5.233273	0.000552	-0.005599	-0.012529	1.000000	0.000007	-0.000070	-0.000157	0.115984	-0.480356	0.869371	0.874225	0.464836	0.140206	-0.471464	0.743764	0.473853
11234		9.383004	1.535593	5.233926	-0.003580	-0.002953	-0.012148	1.000000	-0.000045	-0.000037	-0.000152	0.115840	-0.480250	0.869448	0.874212	0.464838	0.140284	-0.471524	0.743831	0.473687
11235		9.372501	1.524704	5.251362	-0.003492	0.004119	-0.012949	1.000000	-0.000044	0.000051	-0.000162	0.115739	-0.480295	0.869437	0.874235	0.464768	0.140370	-0.471506	0.743846	0.473682
11236		9.345793	1.537197	5.256926	-0.001420	0.007712	-0.011887	1.000000	-0.000018	0.000096	-0.000149	0.115727	-0.480397	0.869383	0.874217	0.464777	0.140453	-0.471543	0.743775	0.473758
11237		9.343495	1.543776	5.289243	-0.000788	0.006860	-0.009193	1.000000	-0.000010	0.000086	-0.000115	0.115796	-0.480442	0.869349	0.874133	0.464919	0.140503	-0.471680	0.743657	0.473806
11238		9.353962	1.548246	5.266033	0.000056	0.007342	-0.011637	1.000000	0.000001	0.000092	-0.000145	0.115780	-0.480527	0.869304	0.874084	0.464980	0.140611	-0.471776	0.743564	0.473856
11239		9.363113	1.522360	5.262711	0.001998	0.007764	-0.010200	1.000000	0.000025	0.000097	-0.000127	0.115815	-0.480589	0.869264	0.873973	0.465154	0.140726	-0.471973	0.743415	0.473894
11240		9.367234	1.546838	5.246121	0.001959	0.009142	-0.008546	1.000000	0.000024	0.000114	-0.000107	0.115839	-0.480652	0.869226	0.873897	0.465269	0.140816	-0.472108	0.743302	0.473937
11241		9.358458	1.554961	5.238563	-0.000413	0.015462	-0.008864	1.000000	-0.000005	0.000193	-0.000111	0.115912	-0.480869	0.869097	0.873917	0.465221	0.140850	-0.472052	0.743192	0.474165
11242		9.328219	1.563522	5.237235	-0.007635	0.014761	-0.007160	1.000000	-0.000095	0.000185	-0.000089	0.116052	-0.481031	0.868988	0.873949	0.465180	0.140788	-0.471959	0.743113	0.474382
11243		9.324479	1.540718	5.236814	-0.005542	0.005313	-0.007349	1.000000	-0.000069	0.000066	-0.000092	0.116062	-0.481024	0.868991	0.873976	0.465141	0.140748	-0.471907	0.743142	0.474388
11244		9.339905	1.518330	5.249847	-0.001329	-0.006972	-0.003962	1.000000	-0.000017	-0.000087	-0.000050	0.116082	-0.480734	0.869149	0.873852	0.465389	0.140700	-0.472132	0.743175	0.474113
11245		9.360784	1.557304	5.284610	0.001252	-0.003042	-0.004820	1.000000	0.000016	-0.000038	-0.000060	0.116080	-0.480569	0.869240	0.873809	0.465482	0.140657	-0.472211	0.743222	0.473959
11246		9.367643	1.545473	5.319055	-0.003038	0.012916	-0.006351	1.000000	-0.000038	0.000161	-0.000079	0.116252	-0.480697	0.869147	0.873765	0.465574	0.140625	-0.472250	0.743082	0.474140
11247		9.385490	1.560090	5.270075	0.004784	0.005234	-0.007667	1.000000	0.000060	0.000065	-0.000096	0.116229	-0.480693	0.869152	0.873682	0.465700	0.140725	-0.472410	0.743006	0.474101
11248		9.302854	1.535169	5.372352	0.001678	-0.017592	0.002590	1.000000	0.000021	-0.000220	0.000032	0.116160	-0.480157	0.869457	0.873633	0.465847	0.140545	-0.472518	0.743261	0.473593
11249		9.379662	1.520780	5.175395	-0.000207	0.003026	0.000147	1.000000	-0.000003	0.000038	0.000002	0.116307	-0.480018	0.869515	0.873561	0.466019	0.140419	-0.472614	0.743242	0.473526
11250		9.359559	1.553779	5.160976	0.011366	-0.001013	-0.003538	1.000000	0.000142	-0.000013	-0.000044	0.116327	-0.479847	0.869606	0.873362	0.466365	0.140509	-0.472977	0.743136	0.473331
11251		9.334532	1.560615	5.270018	0.011036	-0.010987	-0.005525	1.000000	0.000138	-0.000137	-0.000069	0.116178	-0.479526	0.869803	0.873200	0.466633	0.140625	-0.473312	0.743174	0.472935
11252		9.351866	1.535579	5.250404	0.006851	-0.004444	-0.005575	1.000000	0.000086	-0.000056	-0.000070	0.116211	-0.479317	0.869914	0.872983	0.467016	0.140702	-0.473704	0.743069	0.472708
11253		9.337958	1.535017	5.211779	0.006411	-0.002068	0.000538	1.000000	0.000080	-0.000026	0.000007	0.116333	-0.479086	0.870025	0.872821	0.467338	0.140637	-0.473973	0.743015	0.472523
11254		9.369921	1.562290	5.205061	0.008592	-0.003521	-0.001907	1.000000	0.000107	-0.000044	-0.000024	0.116406	-0.478844	0.870148	0.872598	0.467746	0.140667	-0.474365	0.742915	0.472287
11255		9.395756	1.567458	5.217887	0.001574	0.006015	-0.001381	1.000000	0.000020	0.000075	-0.000017	0.116643	-0.478787	0.870148	0.872447	0.468051	0.140587	-0.474585	0.742759	0.472311
11256		9.294604	1.509793	5.241392	0.008114	-0.006151	-0.000183	1.000000	0.000101	-0.000077	-0.000002	0.116665	-0.478486	0.870311	0.872287	0.468355	0.140566	-0.474873	0.742762	0.472018
11257		9.380248	1.536605	5.282359	-0.004100	-0.006544	0.007260	1.000000	-0.000051	-0.000082	0.000091	0.116869	-0.478094	0.870499	0.872236	0.468550	0.140235	-0.474918	0.742891	0.471769
11258		9.351903	1.535103	5.236227	-0.002245	-0.007226	0.003879	1.000000	-0.000028	-0.000090	0.000048	0.117004	-0.477717	0.870688	0.872138	0.468799	0.140015	-0.475064	0.742977	0.471486
11259		9.383889	1.542833	5.265845	-0.005590	-0.004565	0.006380	1.000000	-0.000070	-0.000057	0.000080	0.117165	-0.477387	0.870847	0.872171	0.468840	0.139669	-0.474963	0.743163	0.471295
11260		9.375229	1.543514	5.245981	-0.010717	-0.001449	0.006868	1.000000	-0.000134	-0.000018	0.000086	0.117418	-0.477081	0.870981	0.872171	0.468951	0.139290	-0.474900	0.743289	0.471160
11261		9.337606	1.534249	5.258584	-0.009467	0.001894	0.008092	1.000000	-0.000118	0.000024	0.000101	0.117755	-0.476840	0.871067	0.872170	0.469076	0.138878	-0.474819	0.743364	0.471122
11262		9.342063	1.543590	5.253972	-0.008238	-0.003901	0.007637	1.000000	-0.000103	-0.000049	0.000095	0.117944	-0.476478	0.871239	0.872176	0.469171	0.138517	-0.474761	0.743537	0.470909
11263		9.391304	1.518533	5.236179	-0.009030	-0.003923	0.005516	1.000000	-0.000113	-0.000049	0.000069	0.118108	-0.476175	0.871383	0.872239	0.469161	0.138153	-0.474604	0.743737	0.470750
11264		9.354780	1.526923	5.211017	-0.006384	-0.004583	0.004256	1.000000	-0.000080	-0.000057	0.000053	0.118249	-0.475855	0.871539	0.872232	0.469258	0.137869	-0.474583	0.743881	0.470545
11265		9.375560	1.527920	5.235681	-0.007254	-0.001852	0.005445	1.000000	-0.000091	-0.000023	0.000068	0.118472	-0.475572	0.871663	0.872207	0.469397	0.137554	-0.474573	0.743974	0.470407
11266		9.370433	1.541367	5.211876	-0.009261	0.002318	0.004408	1.000000	-0.000116	0.000029	0.000055	0.118695	-0.475395	0.871729	0.872261	0.469395	0.137216	-0.474417	0.744088	0.470384
11267		9.361782	1.534733	5.216596	-0.012956	0.005524	0.008259	1.000000	-0.000162	0.000069	0.000103	0.119051	-0.475180	0.871797	0.872237	0.469555	0.136824	-0.474373	0.744125	0.470371
11268		9.340330	1.518079	5.205872	-0.013034	-0.004072	0.011137	1.000000	-0.000163	-0.000051	0.000139	0.119355	-0.474786	0.871970	0.872271	0.469638	0.136321	-0.474234	0.744324	0.470196
11269		9.365717	1.473587	5.220618	-0.011641	-0.008071	0.008648	1.000000	-0.000146	-0.000101	0.000108	0.119615	-0.474343	0.872176	0.872241	0.469818	0.135892	-0.474223	0.744493	0.469939
11270		9.393924	1.504928	5.212936	-0.010252	-0.000641	0.008051	1.000000	-0.000128	-0.000008	0.000101	0.119907	-0.474068	0.872285	0.872269	0.469889	0.135469	-0.474099	0.744624	0.469858
11271		9.357446	1.481722	5.272384	-0.010689	0.011148	0.005019	1.000000	-0.000134	0.000139	0.000063	0.120258	-0.474036	0.872254	0.872302	0.469927	0.135122	-0.473948	0.744620	0.470015
11272		9.349124	1.552367	5.191984	0.001476	-0.000375	0.000251	1.000000	0.000018	-0.000005	0.000003	0.120408	-0.473857	0.872331	0.872198	0.470154	0.135002	-0.474102	0.744590	0.469907
11273		9.352666	1.478673	5.283392	0.000691	-0.023763	0.007460	1.000000	0.000009	-0.000297	0.000093	0.120412	-0.473149	0.872715	0.872075	0.470457	0.134738	-0.474326	0.744849	0.469270
11274		9.437773	1.487863	5.076183	-0.003034	0.002581	0.004265	1.000000	-0.000038	0.000032	0.000053	0.120665	-0.472970	0.872777	0.872007	0.470654	0.134496	-0.474388	0.744838	0.469224
11275		9.372322	1.502039	5.100942	0.001894	0.003399	0.002469	1.000000	0.000024	0.000042	0.000031	0.120857	-0.472859	0.872810	0.871965	0.470783	0.134314	-0.474416	0.744827	0.469215
11276		9.344994	1.500853	5.255097	0.002952	-0.012178	-0.001393	1.000000	0.000037	-0.000152	-0.000017	0.120781	-0.472481	0.873026	0.871881	0.470954	0.134257	-0.474589	0.744959	0.468830
11277		9.346413	1.462049	5.212124	-0.001132	-0.001085	-0.000146	1.000000	-0.000014	-0.000014	-0.000002	0.120844	-0.472295	0.873117	0.871856	0.471038	0.134129	-0.474619	0.745024	0.468695
11278		9.381072	1.472433	5.167733	-0.000806	-0.001857	0.000787	1.000000	-0.000010	-0.000023	0.000010	0.120988	-0.472078	0.873215	0.871760	0.471257	0.133985	-0.474760	0.745023	0.468555
11279		9.392024	1.500056	5.166645	0.002867	-0.004376	-0.002239	1.000000	0.000036	-0.000055	-0.000028	0.120982	-0.471860	0.873334	0.871686	0.471405	0.133945	-0.474897	0.745067	0.468345
11280		9.407893	1.491869	5.196660	0.003576	0.006887	-0.004497	1.000000	0.000045	0.000086	-0.000056	0.121071	-0.471868	0.873317	0.871582	0.471588	0.133976	-0.475065	0.744947	0.468367
11281		9.287737	1.459704	5.145691	0.011875	0.002747	-0.009001	1.000000	0.000148	0.000034	-0.000113	0.121015	-0.471866	0.873326	0.871419	0.471831	0.134184	-0.475379	0.744794	0.468291
11282		9.389395	1.491511	5.287290	0.010311	-0.007391	-0.004924	1.000000	0.000129	-0.000092	-0.000062	0.120911	-0.471621	0.873473	0.871261	0.472090	0.134294	-0.475693	0.744785	0.467986
11283		9.365362	1.505851	5.152120	0.011960	-0.005050	-0.008156	1.000000	0.000150	-0.000063	-0.000102	0.120763	-0.471480	0.873569	0.871142	0.472263	0.134461	-0.475950	0.744764	0.467758
11284		9.398080	1.546746	5.214774	0.013787	-0.005962	-0.009256	1.000000	0.000172	-0.000075	-0.000116	0.120579	-0.471303	0.873690	0.870931	0.472576	0.134728	-0.476383	0.744678	0.467454
11285		9.394796	1.534136	5.188027	0.008803	0.002166	-0.012044	1.000000	0.000110	0.000027	-0.000151	0.120459	-0.471325	0.873695	0.870797	0.472753	0.134973	-0.476658	0.744552	0.467376
11286		9.367021	1.516572	5.212987	0.001000	0.008243	-0.010089	1.000000	0.000013	0.000103	-0.000126	0.120418	-0.471443	0.873637	0.870790	0.472735	0.135078	-0.476681	0.744488	0.467454
11287		9.356526	1.522484	5.194872	-0.000393	0.003341	-0.011570	1.000000	-0.000005	0.000042	-0.000145	0.120291	-0.471479	0.873635	0.870781	0.472713	0.135213	-0.476729	0.744480	0.467418
11288		9.387162	1.513489	5.232344	-0.001351	0.001526	-0.011662	1.000000	-0.000017	0.000019	-0.000146	0.120069	-0.471499	0.873655	0.870870	0.472518	0.135325	-0.476623	0.744591	0.467349
11289		9.382486	1.485898	5.190595	-0.000069	0.006016	-0.014174	1.000000	-0.000001	0.000075	-0.000177	0.119932	-0.471628	0.873604	0.870879	0.472450	0.135501	-0.476640	0.744552	0.467393
11290		9.376190	1.519075	5.185052	0.003481	0.010157	-0.014314	1.000000	0.000044	0.000127	-0.000179	0.119832	-0.471818	0.873515	0.870813	0.472499	0.135754	-0.476786	0.744400	0.467486
11291		9.381763	1.544756	5.232352	-0.000054	0.018601	-0.016029	1.000000	-0.000001	0.000233	-0.000200	0.119734	-0.472186	0.873330	0.870834	0.472385	0.136013	-0.476771	0.744240	0.467756
11292		9.361429	1.564453	5.184465	-0.005183	0.021721	-0.015541	1.000000	-0.000065	0.000272	-0.000194	0.119763	-0.472615	0.873093	0.870877	0.472259	0.136179	-0.476686	0.744048	0.468149
11293		9.333708	1.555661	5.198524	-0.005414	0.010327	-0.010632	1.000000	-0.000068	0.000129	-0.000133	0.119715	-0.472788	0.873006	0.870974	0.472068	0.136218	-0.476521	0.744059	0.468300
11294		9.350320	1.525314	5.151735	-0.009195	-0.001768	-0.009121	1.000000	-0.000115	-0.000022	-0.000114	0.119617	-0.472707	0.873064	0.871038	0.471958	0.136195	-0.476429	0.744180	0.468200
11295		9.388810	1.543485	5.209393	-0.008194	-0.004771	-0.007148	1.000000	-0.000102	-0.000060	-0.000089	0.119515	-0.472544	0.873166	0.871087	0.471881	0.136145	-0.476365	0.744332	0.468024
11296		9.386167	1.552864	5.271484	-0.010318	0.009734	-0.011119	1.000000	-0.000129	0.000122	-0.000139	0.119426	-0.472689	0.873100	0.871206	0.471651	0.136181	-0.476170	0.744386	0.468137
11297		9.342485	1.563268	5.177500	-0.001190	0.005871	-0.015779	1.000000	-0.000015	0.000073	-0.000197	0.119218	-0.472827	0.873053	0.871228	0.471544	0.136410	-0.476181	0.744366	0.468157
11298		9.322087	1.521978	5.247635	-0.005108	-0.013084	-0.008081	1.000000	-0.000064	-0.000164	-0.000101	0.118916	-0.472528	0.873256	0.871313	0.471385	0.136420	-0.476102	0.744657	0.467775
11299		9.441003	1.532196	5.210984	-0.011420	-0.003314	-0.000029	1.000000	-0.000143	-0.000041	-0.000000	0.118991	-0.472319	0.873359	0.871395	0.471308	0.136163	-0.475933	0.744838	0.467658
11300		9.388609	1.532649	5.026008	0.001118	0.007992	-0.006926	1.000000	0.000014	0.000100	-0.000087	0.119019	-0.472380	0.873322	0.871314	0.471431	0.136252	-0.476074	0.744721	0.467701
11301		9.368150	1.557866	5.171835	0.004620	-0.007293	-0.006701	1.000000	0.000058	-0.000091	-0.000084	0.118876	-0.472166	0.873458	0.871217	0.471581	0.136352	-0.476286	0.744762	0.467419
11302		9.346027	1.516484	5.178389	0.003143	-0.006921	-0.006953	1.000000	0.000039	-0.000087	-0.000087	0.118700	-0.471964	0.873590	0.871166	0.471650	0.136442	-0.476424	0.744846	0.467144
11303		9.333653	1.522335	5.179451	-0.001614	-0.001194	-0.000506	1.000000	-0.000020	-0.000015	-0.000006	0.118765	-0.471806	0.873667	0.871157	0.471705	0.136311	-0.476425	0.744912	0.467039
11304		9.390530	1.559898	5.163203	0.003302	-0.002201	0.000608	1.000000	0.000041	-0.000028	0.000008	0.118843	-0.471585	0.873776	0.871014	0.471982	0.136266	-0.476667	0.744876	0.466849
11305		9.421918	1.548778	5.199983	-0.000323	0.001695	-0.002389	1.000000	-0.000004	0.000021	-0.000030	0.118871	-0.471489	0.873824	0.870983	0.472052	0.136221	-0.476717	0.744893	0.466772
11306		9.412723	1.513247	5.140401	-0.005003	0.008127	-0.002792	1.000000	-0.000063	0.000102	-0.000035	0.118985	-0.471530	0.873786	0.871024	0.472010	0.136106	-0.476614	0.744894	0.466876
11307		9.310542	1.525923	5.270244	-0.002189	-0.003315	-0.004233	1.000000	-0.000027	-0.000041	-0.000053	0.118935	-0.471379	0.873874	0.871040	0.471996	0.136051	-0.476596	0.744998	0.466727
11308		9.346576	1.532193	5.194656	-0.013460	-0.007596	-0.001926	1.000000	-0.000168	-0.000095	-0.000024	0.118886	-0.471122	0.874019	0.871183	0.471800	0.135814	-0.476347	0.745284	0.466524
11309		9.369753	1.540678	5.174550	-0.011101	-0.004473	-0.010768	1.000000	-0.000139	-0.000056	-0.000135	0.118737	-0.471020	0.874095	0.871264	0.471652	0.135805	-0.476235	0.745443	0.466385
11310		9.390358	1.488880	5.194345	-0.013063	-0.004205	-0.011381	1.000000	-0.000163	-0.000053	-0.000142	0.118499	-0.470929	0.874176	0.871421	0.471363	0.135803	-0.476008	0.745683	0.466233
11311		9.390413	1.524775	5.204972	-0.011314	-0.001444	-0.010619	1.000000	-0.000141	-0.000018	-0.000133	0.118376	-0.470892	0.874212	0.871544	0.471146	0.135767	-0.475814	0.745843	0.466176
11312		9.373615	1.497202	5.218328	-0.009935	0.003460	-0.009132	1.000000	-0.000124	0.000043	-0.000114	0.118302	-0.470915	0.874211	0.871633	0.470986	0.135755	-0.475669	0.745930	0.466183
11313		9.354848	1.518800	5.197099	-0.008087	0.000946	-0.009606	1.000000	-0.000101	0.000012	-0.000120	0.118145	-0.470902	0.874239	0.871744	0.470774	0.135770	-0.475503	0.746072	0.466126
11314		9.383524	1.509175	5.171550	-0.003437	-0.002266	-0.010459	1.000000	-0.000043	-0.000028	-0.000131	0.117931	-0.470851	0.874295	0.871832	0.470593	0.135839	-0.475397	0.746219	0.466000
11315		9.390250	1.505328	5.181568	-0.000832	-0.001548	-0.010061	1.000000	-0.000010	-0.000019	-0.000126	0.117766	-0.470807	0.874341	0.871861	0.470513	0.135925	-0.475383	0.746297	0.465888
11316		9.388938	1.528853	5.176402	0.002126	0.008691	-0.010769	1.000000	0.000027	0.000109	-0.000135	0.117737	-0.470945	0.874271	0.871788	0.470600	0.136096	-0.475525	0.746155	0.465971
11317		9.352510	1.544560	5.163079	0.003074	0.009587	-0.009219	1.000000	0.000038	0.000120	-0.000115	0.117736	-0.471081	0.874197	0.871707	0.470705	0.136249	-0.475673	0.746002	0.466064
11318		9.372420	1.546335	5.159035	0.005647	0.003470	-0.010314	1.000000	0.000071	0.000043	-0.000129	0.117618	-0.471132	0.874186	0.871655	0.470750	0.136428	-0.475799	0.745942	0.466033
11319		9.378692	1.543285	5.169630	0.005352	0.000102	-0.008543	1.000000	0.000067	0.000001	-0.000107	0.117503	-0.471093	0.874222	0.871580	0.470844	0.136577	-0.475963	0.745907	0.465921
11320		9.381249	1.527130	5.184709	0.002349	0.001288	-0.005933	1.000000	0.000029	0.000016	-0.000074	0.117458	-0.471048	0.874253	0.871536	0.470910	0.136633	-0.476055	0.745894	0.465848
11321		9.379496	1.532608	5.216260	-0.000558	0.007257	-0.004318	1.000000	-0.000007	0.000091	-0.000054	0.117563	-0.471115	0.874202	0.871551	0.470901	0.136566	-0.476001	0.745857	0.465961
11322		9.339787	1.561983	5.242268	-0.004313	0.018041	-0.006706	1.000000	-0.000054	0.000226	-0.000084	0.117742	-0.471392	0.874029	0.871561	0.470886	0.136554	-0.475939	0.745692	0.466290
11323		9.368517	1.561801	5.205757	-0.000005	0.005310	-0.006447	1.000000	-0.000000	0.000066	-0.000081	0.117709	-0.471444	0.874005	0.871606	0.470800	0.136567	-0.475866	0.745713	0.466330
11324		9.359866	1.524750	5.280722	-0.003138	-0.018889	0.001245	1.000000	-0.000039	-0.000236	0.000016	0.117581	-0.470948	0.874290	0.871633	0.470803	0.136381	-0.475847	0.746024	0.465852
11325		9.404522	1.502144	5.137499	-0.006262	0.008613	0.004119	1.000000	-0.000078	0.000108	0.000051	0.117862	-0.470925	0.874265	0.871650	0.470850	0.136115	-0.475747	0.746010	0.465977
11326		9.374504	1.557984	5.097976	0.008953	-0.005884	-0.000349	1.000000	0.000112	-0.000074	-0.000004	0.117871	-0.470683	0.874393	0.871497	0.471130	0.136127	-0.476025	0.745985	0.465731
11327		9.365078	1.577781	5.178043	0.005011	-0.002819	-0.003656	1.000000	0.000063	-0.000035	-0.000046	0.117860	-0.470540	0.874472	0.871395	0.471309	0.136159	-0.476215	0.745963	0.465574
11328		9.335296	1.562004	5.169363	0.000683	-0.001310	-0.000417	1.000000	0.000009	-0.000016	-0.000005	0.117898	-0.470392	0.874547	0.871377	0.471370	0.136064	-0.476238	0.746018	0.465462
11329		9.348372	1.556995	5.166836	-0.002742	-0.003210	0.000800	1.000000	-0.000034	-0.000040	0.000010	0.117968	-0.470197	0.874642	0.871384	0.471405	0.135893	-0.476207	0.746118	0.465333
11330		9.406994	1.565835	5.178963	-0.003696	-0.005954	0.002160	1.000000	-0.000046	-0.000074	0.000027	0.117991	-0.469933	0.874780	0.871426	0.471386	0.135691	-0.476125	0.746296	0.465131
11331		9.415442	1.554556	5.158075	-0.010773	-0.002345	-0.000247	1.000000	-0.000135	-0.000029	-0.000003	0.118000	-0.469762	0.874871	0.871548	0.471224	0.135472	-0.475900	0.746506	0.465025
11332		9.404796	1.525411	5.159435	-0.010829	0.008158	0.003110	1.000000	-0.000135	0.000102	0.000039	0.118218	-0.469745	0.874851	0.871641	0.471134	0.135188	-0.475676	0.746574	0.465145
11333		9.326256	1.525758	5.222385	-0.005998	-0.007688	0.004975	1.000000	-0.000075	-0.000096	0.000062	0.118304	-0.469415	0.875016	0.871675	0.471152	0.134904	-0.475591	0.746770	0.464917
11334		9.367208	1.483924	5.190201	-0.007345	-0.006678	0.006434	1.000000	-0.000092	-0.000083	0.000080	0.118462	-0.469082	0.875174	0.871682	0.471230	0.134583	-0.475539	0.746930	0.464713
11335		9.374643	1.534982	5.150818	-0.002573	-0.005788	0.003759	1.000000	-0.000032	-0.000072	0.000047	0.118543	-0.468795	0.875316	0.871655	0.471335	0.134387	-0.475568	0.747043	0.464501
11336		9.384935	1.544017	5.186722	-0.005808	0.000956	0.004443	1.000000	-0.000073	0.000012	0.000056	0.118668	-0.468642	0.875381	0.871749	0.471241	0.134107	-0.475364	0.747199	0.464460
11337		9.386805	1.531076	5.179611	-0.003068	0.003239	0.005100	1.000000	-0.000038	0.000040	0.000064	0.118913	-0.468520	0.875414	0.871741	0.471332	0.133842	-0.475318	0.747218	0.464475
11338		9.375846	1.520199	5.227940	0.000548	0.001872	0.006015	1.000000	0.000007	0.000023	0.000075	0.119138	-0.468358	0.875470	0.871692	0.471488	0.133613	-0.475352	0.747222	0.464436
11339		9.362092	1.516336	5.190027	-0.001366	-0.004540	0.010185	1.000000	-0.000017	-0.000057	0.000127	0.119373	-0.468032	0.875612	0.871672	0.471625	0.133257	-0.475329	0.747339	0.464270
11340		9.386088	1.501714	5.175863	-0.000856	-0.004194	0.008261	1.000000	-0.000011	-0.000052	0.000103	0.119620	-0.467734	0.875738	0.871607	0.471831	0.132951	-0.475386	0.747396	0.464120
11341		9.413234	1.521236	5.151466	0.003369	-0.000434	0.006261	1.000000	0.000042	-0.000005	0.000078	0.119818	-0.467535	0.875817	0.871549	0.472000	0.132732	-0.475442	0.747414	0.464034
11342		9.402372	1.513739	5.146145	0.003115	0.004885	0.006620	1.000000	0.000039	0.000061	0.000083	0.120084	-0.467429	0.875837	0.871488	0.472176	0.132510	-0.475488	0.747369	0.464059
11343		9.376523	1.501645	5.157839	0.004696	0.010222	0.004424	1.000000	0.000059	0.000128	0.000055	0.120355	-0.467450	0.875788	0.871429	0.472330	0.132349	-0.475528	0.747258	0.464197
11344		9.372595	1.519746	5.144738	0.002641	0.007555	0.001896	1.000000	0.000033	0.000094	0.000024	0.120533	-0.467449	0.875765	0.871392	0.472430	0.132234	-0.475550	0.747196	0.464274
11345		9.359256	1.510218	5.130200	0.002300	-0.004500	0.005079	1.000000	0.000029	-0.000056	0.000063	0.120609	-0.467179	0.875898	0.871338	0.472573	0.132075	-0.475629	0.747274	0.464068
11346		9.385293	1.482790	5.160988	0.002864	-0.008984	0.005030	1.000000	0.000036	-0.000112	0.000063	0.120620	-0.466829	0.876083	0.871297	0.472693	0.131918	-0.475701	0.747417	0.463763
11347		9.408787	1.487645	5.193856	0.003564	-0.001846	0.005483	1.000000	0.000045	-0.000023	0.000069	0.120773	-0.466623	0.876172	0.871283	0.472782	0.131691	-0.475688	0.747489	0.463660
11348		9.402921	1.499477	5.224261	0.000244	0.012023	0.004496	1.000000	0.000003	0.000150	0.000056	0.121146	-0.466685	0.876087	0.871240	0.472929	0.131450	-0.475672	0.747358	0.463888
11349		9.359465	1.504639	5.183897	0.006598	0.008185	-0.000619	1.000000	0.000082	0.000102	-0.000008	0.121255	-0.466727	0.876050	0.871170	0.473059	0.131449	-0.475774	0.747249	0.463959
11350		9.311986	1.452702	5.148335	0.000273	-0.011309	0.005257	1.000000	0.000003	-0.000141	0.000066	0.121286	-0.466335	0.876254	0.871139	0.473173	0.131241	-0.475822	0.747422	0.463632
11351		9.448952	1.456187	5.234158	-0.000337	-0.006377	0.008418	1.000000	-0.000004	-0.000080	0.000105	0.121411	-0.465995	0.876418	0.871111	0.473297	0.130977	-0.475841	0.747555	0.463397
11352		9.393466	1.479399	5.063252	0.009699	0.001719	-0.004468	1.000000	0.000121	0.000021	-0.000056	0.121364	-0.465963	0.876441	0.871014	0.473443	0.131095	-0.476030	0.747482	0.463320
11353		9.401870	1.517714	5.123419	0.010325	-0.004820	-0.007004	1.000000	0.000129	-0.000060	-0.000088	0.121258	-0.465839	0.876522	0.870871	0.473662	0.131257	-0.476320	0.747421	0.463121
11354		9.353225	1.508231	5.128782	0.008353	-0.001097	-0.011151	1.000000	0.000104	-0.000014	-0.000139	0.121150	-0.465839	0.876537	0.870759	0.473812	0.131458	-0.476552	0.747326	0.463036
11355		9.360956	1.501245	5.107870	0.007992	-0.002406	-0.006892	1.000000	0.000100	-0.000030	-0.000086	0.121034	-0.465764	0.876593	0.870693	0.473900	0.131581	-0.476703	0.747317	0.462895
11356		9.400323	1.516952	5.134596	0.007153	-0.001974	-0.005902	1.000000	0.000089	-0.000025	-0.000074	0.120927	-0.465678	0.876653	0.870598	0.474036	0.131716	-0.476903	0.747284	0.462742
11357		9.415233	1.516933	5.141555	0.001207	0.002726	-0.008160	1.000000	0.000015	0.000034	-0.000102	0.120781	-0.465713	0.876655	0.870639	0.473932	0.131819	-0.476864	0.747329	0.462709
11358		9.444242	1.479443	5.146794	-0.001771	0.014210	-0.007596	1.000000	-0.000022	0.000178	-0.000095	0.120811	-0.465951	0.876524	0.870672	0.473852	0.131890	-0.476797	0.747231	0.462937
11359		9.334519	1.484478	5.167017	0.009005	0.006495	-0.007590	1.000000	0.000113	0.000081	-0.000095	0.120724	-0.466050	0.876484	0.870611	0.473912	0.132077	-0.476931	0.747131	0.462960
11360		9.379812	1.480056	5.188186	0.003397	-0.004018	-0.004162	1.000000	0.000042	-0.000050	-0.000052	0.120584	-0.465918	0.876573	0.870641	0.473852	0.132095	-0.476911	0.747251	0.462786
11361		9.377149	1.517283	5.136447	0.005604	0.004837	-0.008658	1.000000	0.000070	0.000060	-0.000108	0.120548	-0.465998	0.876535	0.870564	0.473951	0.132243	-0.477060	0.747139	0.462815
11362		9.410404	1.524889	5.200493	0.003422	0.007203	-0.007666	1.000000	0.000043	0.000090	-0.000096	0.120541	-0.466114	0.876475	0.870541	0.473968	0.132334	-0.477104	0.747056	0.462904
11363		9.392616	1.522500	5.155180	0.003287	0.005639	-0.007921	1.000000	0.000041	0.000070	-0.000099	0.120483	-0.466201	0.876436	0.870517	0.473980	0.132454	-0.477163	0.746994	0.462942
11364		9.382024	1.525250	5.190636	0.008276	0.009184	-0.005518	1.000000	0.000103	0.000115	-0.000069	0.120533	-0.466322	0.876365	0.870390	0.474171	0.132600	-0.477381	0.746797	0.463035
11365		9.361370	1.517233	5.190322	0.003358	0.010187	-0.006637	1.000000	0.000042	0.000127	-0.000083	0.120485	-0.466482	0.876287	0.870402	0.474116	0.132715	-0.477371	0.746732	0.463151
11366		9.369114	1.504551	5.141224	-0.000160	0.004426	-0.005877	1.000000	-0.000002	0.000055	-0.000073	0.120462	-0.466526	0.876266	0.870412	0.474089	0.132749	-0.477359	0.746722	0.463179
11367		9.403237	1.493103	5.157559	0.001825	0.003477	-0.006092	1.000000	0.000023	0.000043	-0.000076	0.120411	-0.466552	0.876259	0.870394	0.474101	0.132823	-0.477404	0.746698	0.463171
11368		9.397050	1.510207	5.134486	0.002398	0.006520	-0.003820	1.000000	0.000030	0.000082	-0.000048	0.120404	-0.466612	0.876228	0.870406	0.474072	0.132850	-0.477385	0.746679	0.463222
11369		9.396233	1.525763	5.153145	0.001902	0.009874	-0.007720	1.000000	0.000024	0.000123	-0.000097	0.120372	-0.466781	0.876143	0.870422	0.474013	0.132953	-0.477363	0.746610	0.463354
11370		9.381595	1.532674	5.157922	-0.001577	0.013728	-0.009843	1.000000	-0.000020	0.000172	-0.000123	0.120309	-0.467051	0.876007	0.870527	0.473793	0.133050	-0.477187	0.746581	0.463583
11371		9.364289	1.522395	5.136607	-0.003005	0.007418	-0.005302	1.000000	-0.000038	0.000093	-0.000066	0.120359	-0.467146	0.875950	0.870564	0.473733	0.133024	-0.477108	0.746560	0.463699
11372		9.361475	1.534549	5.145575	-0.001774	0.002307	-0.004930	1.000000	-0.000022	0.000029	-0.000062	0.120312	-0.467138	0.875961	0.870577	0.473703	0.133046	-0.477096	0.746584	0.463671
11373		9.381676	1.503424	5.159681	-0.000375	-0.005384	-0.001592	1.000000	-0.000005	-0.000067	-0.000020	0.120230	-0.466951	0.876072	0.870597	0.473680	0.132996	-0.477080	0.746716	0.463476
11374		9.397707	1.529549	5.200345	0.001243	0.005193	-0.001682	1.000000	0.000016	0.000065	-0.000021	0.120289	-0.466959	0.876059	0.870563	0.473746	0.132982	-0.477127	0.746669	0.463504
11375		9.372241	1.525655	5.252976	-0.004367	0.019420	-0.005071	1.000000	-0.000055	0.000243	-0.000063	0.120444	-0.467273	0.875871	0.870608	0.473666	0.132978	-0.477007	0.746523	0.463862
11376		9.360515	1.553617	5.177640	-0.000445	0.010441	-0.004701	1.000000	-0.000006	0.000131	-0.000059	0.120459	-0.467423	0.875789	0.870674	0.473543	0.132983	-0.476882	0.746507	0.464015
11377		9.324738	1.484474	5.206501	0.002937	-0.020425	0.003161	1.000000	0.000037	-0.000255	0.000040	0.120246	-0.466904	0.876094	0.870684	0.473554	0.132871	-0.476916	0.746824	0.463470
11378		9.429926	1.492767	5.131967	-0.000912	0.002486	0.003475	1.000000	-0.000011	0.000031	0.000043	0.120344	-0.466806	0.876133	0.870690	0.473583	0.132730	-0.476881	0.746868	0.463436
11379		9.386210	1.526162	5.060607	0.009848	0.000777	-0.002124	1.000000	0.000123	0.000010	-0.000027	0.120343	-0.466746	0.876165	0.870605	0.473726	0.132781	-0.477037	0.746814	0.463362
11380		9.377011	1.553607	5.181749	0.008687	0.003832	-0.004984	1.000000	0.000109	0.000048	-0.000062	0.120226	-0.466776	0.876165	0.870563	0.473759	0.132937	-0.477143	0.746775	0.463316
11381		9.333386	1.495284	5.148344	0.010032	0.001899	-0.004984	1.000000	0.000125	0.000024	-0.000062	0.120098	-0.466771	0.876186	0.870501	0.473826	0.133103	-0.477288	0.746736	0.463230
11382		9.346548	1.506000	5.162769	0.009835	-0.001994	0.002246	1.000000	0.000123	-0.000025	0.000028	0.120126	-0.466607	0.876269	0.870397	0.474020	0.133092	-0.477471	0.746715	0.463075
11383		9.399426	1.532122	5.151015	0.008205	-0.001581	0.001109	1.000000	0.000103	-0.000020	0.000014	0.120193	-0.466465	0.876335	0.870304	0.474204	0.133048	-0.477624	0.746687	0.462963
11384		9.423879	1.530429	5.124283	0.003561	0.004397	-0.002420	1.000000	0.000045	0.000055	-0.000030	0.120210	-0.466481	0.876325	0.870312	0.474192	0.133034	-0.477605	0.746684	0.462986
11385		9.389275	1.516166	5.139541	0.002746	0.012598	-0.001407	1.000000	0.000034	0.000157	-0.000018	0.120352	-0.466633	0.876224	0.870290	0.474237	0.133017	-0.477608	0.746561	0.463182
11386		9.337497	1.533350	5.201512	0.004059	-0.006488	-0.000826	1.000000	0.000051	-0.000081	-0.000010	0.120257	-0.466423	0.876349	0.870267	0.474283	0.133008	-0.477676	0.746662	0.462948
11387		9.379912	1.517481	5.173034	-0.006484	-0.002500	-0.001830	1.000000	-0.000081	-0.000031	-0.000023	0.120216	-0.466300	0.876420	0.870363	0.474142	0.132882	-0.477511	0.746829	0.462850
11388		9.400399	1.523460	5.144398	-0.003016	-0.002890	-0.003247	1.000000	-0.000038	-0.000036	-0.000041	0.120133	-0.466191	0.876489	0.870459	0.473988	0.132800	-0.477355	0.746995	0.462742
11389		9.411313	1.509460	5.156686	-0.006403	0.005748	-0.006377	1.000000	-0.000080	0.000072	-0.000080	0.120087	-0.466278	0.876450	0.870576	0.473782	0.132774	-0.477155	0.747071	0.462825
11390		9.387296	1.522508	5.171096	-0.004573	0.003921	-0.006016	1.000000	-0.000057	0.000049	-0.000075	0.120006	-0.466328	0.876434	0.870683	0.473588	0.132765	-0.476981	0.747163	0.462857
11391		9.356886	1.520592	5.181156	-0.002831	0.006688	-0.005254	1.000000	-0.000035	0.000084	-0.000066	0.120002	-0.466420	0.876386	0.870758	0.473455	0.132745	-0.476844	0.747190	0.462954
11392		9.382143	1.490689	5.184510	-0.001822	0.003678	-0.003276	1.000000	-0.000023	0.000046	-0.000041	0.119957	-0.466435	0.876384	0.870838	0.473317	0.132714	-0.476710	0.747268	0.462967
11393		9.376644	1.485948	5.167389	-0.001182	0.004666	-0.003490	1.000000	-0.000015	0.000058	-0.000044	0.119948	-0.466468	0.876368	0.870873	0.473254	0.132705	-0.476648	0.747287	0.463000
11394		9.380346	1.516079	5.127318	0.004357	0.006269	-0.003207	1.000000	0.000054	0.000078	-0.000040	0.119922	-0.466534	0.876336	0.870913	0.473175	0.132723	-0.476581	0.747296	0.463054
11395		9.394595	1.529328	5.153252	0.003126	0.012308	-0.005041	1.000000	0.000039	0.000154	-0.000063	0.119962	-0.466730	0.876226	0.870929	0.473130	0.132780	-0.476541	0.747202	0.463247
11396		9.390424	1.542092	5.164441	-0.000071	0.017684	-0.006034	1.000000	-0.000001	0.000221	-0.000075	0.119996	-0.467040	0.876056	0.870995	0.472989	0.132855	-0.476413	0.747098	0.463546
11397		9.391126	1.541498	5.147849	-0.003808	0.023402	-0.004277	1.000000	-0.000048	0.000293	-0.000053	0.120196	-0.467436	0.875817	0.871093	0.472821	0.132804	-0.476183	0.746956	0.464012
11398		9.369351	1.510684	5.157083	-0.003657	0.023363	-0.003396	1.000000	-0.000046	0.000292	-0.000042	0.120424	-0.467819	0.875582	0.871159	0.472715	0.132754	-0.476005	0.746784	0.464471
11399		9.360437	1.495523	5.157411	-0.005034	0.015671	-0.000509	1.000000	-0.000063	0.000196	-0.000006	0.120582	-0.468029	0.875448	0.871285	0.472522	0.132609	-0.475733	0.746775	0.464764
11400		9.375594	1.467957	5.143217	0.001098	0.011173	0.000371	1.000000	0.000014	0.000140	0.000005	0.120774	-0.468141	0.875361	0.871286	0.472549	0.132507	-0.475683	0.746687	0.464957
11401		9.407275	1.480712	5.185855	0.006020	0.011105	0.000045	1.000000	0.000075	0.000139	0.000001	0.120910	-0.468258	0.875280	0.871254	0.472614	0.132485	-0.475707	0.746572	0.465116
11402		9.396398	1.523944	5.274026	0.005979	0.023729	-0.001822	1.000000	0.000075	0.000297	-0.000023	0.121106	-0.468633	0.875052	0.871246	0.472617	0.132530	-0.475673	0.746335	0.465531
11403		9.323936	1.540171	5.177261	0.008881	0.019371	-0.004047	1.000000	0.000111	0.000242	-0.000051	0.121195	-0.468954	0.874868	0.871213	0.472640	0.132660	-0.475709	0.746119	0.465841
11404		9.323228	1.520316	5.185145	0.001831	-0.001830	0.000367	1.000000	0.000023	-0.000023	0.000005	0.121171	-0.468828	0.874939	0.871241	0.472611	0.132585	-0.475665	0.746217	0.465729
11405		9.434762	1.523903	5.270063	-0.005165	0.000319	0.004840	1.000000	-0.000065	0.000004	0.000060	0.121254	-0.468688	0.875002	0.871321	0.472526	0.132360	-0.475497	0.746359	0.465673
11406		9.428386	1.526968	5.030948	0.002600	0.014521	-0.005207	1.000000	0.000033	0.000182	-0.000065	0.121317	-0.468935	0.874861	0.871363	0.472437	0.132400	-0.475404	0.746260	0.465927
11407		9.358050	1.531703	5.207017	0.004015	-0.000728	-0.004160	1.000000	0.000050	-0.000009	-0.000052	0.121300	-0.468879	0.874894	0.871309	0.472526	0.132437	-0.475507	0.746238	0.465856
11408		9.333941	1.517775	5.186315	0.002218	0.001343	-0.006813	1.000000	0.000028	0.000017	-0.000085	0.121200	-0.468894	0.874899	0.871301	0.472513	0.132537	-0.475547	0.746237	0.465817
11409		9.357261	1.499307	5.197288	-0.003728	0.007574	-0.001167	1.000000	-0.000047	0.000095	-0.000015	0.121274	-0.468961	0.874853	0.871371	0.472411	0.132442	-0.475400	0.746260	0.465930
11410		9.386360	1.539671	5.147418	0.000260	0.003139	0.000505	1.000000	0.000003	0.000039	0.000006	0.121299	-0.468926	0.874869	0.871394	0.472386	0.132379	-0.475351	0.746298	0.465919
11411		9.426860	1.506939	5.158228	-0.000820	0.009142	-0.000453	1.000000	-0.000010	0.000114	-0.000006	0.121436	-0.469014	0.874803	0.871424	0.472358	0.132282	-0.475262	0.746260	0.466071
11412		9.417883	1.498626	5.134480	-0.002205	0.020241	0.001214	1.000000	-0.000028	0.000253	0.000015	0.121677	-0.469291	0.874620	0.871483	0.472280	0.132168	-0.475091	0.746135	0.466445
11413		9.313027	1.482857	5.231399	0.010302	0.000660	0.000552	1.000000	0.000129	0.000008	0.000007	0.121778	-0.469209	0.874650	0.871373	0.472490	0.132148	-0.475268	0.746053	0.466395
11414		9.380754	1.495420	5.158028	0.003133	0.004468	0.003506	1.000000	0.000039	0.000056	0.000044	0.121902	-0.469166	0.874656	0.871371	0.472528	0.132021	-0.475239	0.746056	0.466420
11415		9.377838	1.493354	5.149770	0.010419	0.004772	-0.001285	1.000000	0.000130	0.000060	-0.000016	0.121930	-0.469185	0.874642	0.871287	0.472664	0.132089	-0.475386	0.745958	0.466427
11416		9.394052	1.481040	5.150802	0.007616	0.011397	0.002011	1.000000	0.000095	0.000142	0.000025	0.122121	-0.469288	0.874560	0.871225	0.472791	0.132044	-0.475451	0.745813	0.466594
11417		9.373957	1.498935	5.184632	0.009624	0.014773	0.005367	1.000000	0.000120	0.000185	0.000067	0.122466	-0.469411	0.874446	0.871079	0.473083	0.131961	-0.475629	0.745551	0.466831
11418		9.355871	1.505480	5.210859	0.011305	0.012989	0.004853	1.000000	0.000141	0.000162	0.000061	0.122687	-0.469513	0.874360	0.870989	0.473261	0.131917	-0.475738	0.745373	0.467004
11419		9.352303	1.503281	5.203811	0.007049	0.007422	0.001199	1.000000	0.000088	0.000093	0.000015	0.122810	-0.469550	0.874323	0.870920	0.473393	0.131901	-0.475833	0.745266	0.467078
11420		9.375214	1.506052	5.208533	0.009649	0.002215	-0.001321	1.000000	0.000121	0.000028	-0.000017	0.122820	-0.469521	0.874337	0.870818	0.473559	0.131976	-0.476016	0.745179	0.467030
11421		9.387128	1.509871	5.183564	0.008423	-0.001140	-0.002548	1.000000	0.000105	-0.000014	-0.000032	0.122738	-0.469447	0.874388	0.870771	0.473625	0.132053	-0.476124	0.745184	0.466912
11422		9.386118	1.518670	5.160640	0.004799	0.002758	-0.005577	1.000000	0.000060	0.000034	-0.000070	0.122673	-0.469479	0.874380	0.870751	0.473636	0.132144	-0.476177	0.745157	0.466902
11423		9.372691	1.525474	5.163059	0.001240	0.002739	-0.008170	1.000000	0.000016	0.000034	-0.000102	0.122514	-0.469547	0.874366	0.870834	0.473457	0.132233	-0.476065	0.745228	0.466903
11424		9.376383	1.518925	5.165204	-0.001863	0.003515	-0.009573	1.000000	-0.000023	0.000044	-0.000120	0.122330	-0.469644	0.874340	0.870943	0.473229	0.132336	-0.475914	0.745311	0.466923
11425		9.367246	1.516901	5.169349	-0.003348	0.002955	-0.008375	1.000000	-0.000042	0.000037	-0.000105	0.122140	-0.469717	0.874327	0.871073	0.472969	0.132409	-0.475724	0.745430	0.466926
11426		9.370641	1.515968	5.148215	-0.007282	-0.001850	-0.003150	1.000000	-0.000091	-0.000023	-0.000039	0.122052	-0.469634	0.874384	0.871172	0.472806	0.132341	-0.475566	0.745586	0.466839
11427		9.390390	1.491107	5.139351	-0.004771	-0.005919	-0.001729	1.000000	-0.000060	-0.000074	-0.000022	0.121940	-0.469461	0.874492	0.871272	0.472649	0.132245	-0.475411	0.745795	0.466663
11428		9.388662	1.464846	5.188461	0.001601	-0.005659	-0.000958	1.000000	0.000020	-0.000071	-0.000012	0.121833	-0.469285	0.874602	0.871304	0.472599	0.132209	-0.475380	0.745936	0.466468
11429		9.389009	1.514401	5.215160	0.005740	0.000196	-0.000475	1.000000	0.000072	0.000002	-0.000006	0.121815	-0.469213	0.874643	0.871288	0.472631	0.132201	-0.475414	0.745962	0.466393
11430		9.339748	1.526354	5.162420	0.007274	0.008789	-0.003952	1.000000	0.000091	0.000110	-0.000049	0.121812	-0.469341	0.874575	0.871256	0.472662	0.132305	-0.475474	0.745862	0.466492
11431		9.369697	1.523596	5.177074	0.004869	-0.004624	-0.001589	1.000000	0.000061	-0.000058	-0.000020	0.121706	-0.469190	0.874670	0.871221	0.472713	0.132347	-0.475564	0.745924	0.466300
11432		9.426173	1.504520	5.291520	0.005497	-0.019287	0.006750	1.000000	0.000069	-0.000241	0.000084	0.121612	-0.468669	0.874963	0.871176	0.472841	0.132188	-0.475670	0.746171	0.465797
11433		9.440757	1.489463	5.018036	0.008986	0.008785	0.001184	1.000000	0.000112	0.000110	0.000015	0.121768	-0.468736	0.874905	0.871079	0.473019	0.132188	-0.475808	0.746016	0.465905
11434		9.393109	1.547830	5.107969	0.015168	-0.003950	-0.001037	1.000000	0.000190	-0.000049	-0.000013	0.121694	-0.468590	0.874994	0.870910	0.473290	0.132337	-0.476137	0.745936	0.465696
11435		9.351172	1.507618	5.183280	0.012794	0.002616	-0.003670	1.000000	0.000160	0.000033	-0.000046	0.121636	-0.468599	0.874997	0.870785	0.473470	0.132514	-0.476381	0.745815	0.465640
11436		9.368899	1.477688	5.136048	0.007277	0.005323	-0.000407	1.000000	0.000091	0.000067	-0.000005	0.121644	-0.468624	0.874983	0.870760	0.473508	0.132544	-0.476425	0.745776	0.465658
11437		9.386809	1.509697	5.133458	0.006581	0.005710	0.001461	1.000000	0.000082	0.000071	0.000018	0.121764	-0.468628	0.874964	0.870677	0.473665	0.132526	-0.476545	0.745674	0.465699
11438		9.422856	1.521049	5.153136	0.006118	0.003988	0.001732	1.000000	0.000076	0.000050	0.000022	0.121860	-0.468598	0.874966	0.870613	0.473792	0.132491	-0.476637	0.745612	0.465704
11439		9.435902	1.526297	5.139846	-0.001108	0.017027	-0.002238	1.000000	-0.000014	0.000213	-0.000028	0.121995	-0.468861	0.874807	0.870678	0.473683	0.132456	-0.476484	0.745516	0.466014
11440		9.335024	1.491247	5.168872	0.006018	0.012063	-0.001436	1.000000	0.000075	0.000151	-0.000018	0.122102	-0.469023	0.874705	0.870667	0.473700	0.132463	-0.476476	0.745403	0.466203
11441		9.365696	1.496820	5.171729	-0.003135	0.007403	0.002343	1.000000	-0.000039	0.000093	0.000029	0.122218	-0.469051	0.874674	0.870719	0.473643	0.132330	-0.476353	0.745422	0.466299
11442		9.367483	1.536798	5.139787	0.000376	0.007257	-0.001347	1.000000	0.000005	0.000091	-0.000017	0.122266	-0.469123	0.874628	0.870776	0.473553	0.132272	-0.476235	0.745433	0.466401
11443		9.420716	1.527984	5.183298	-0.000166	0.011995	-0.003611	1.000000	-0.000002	0.000150	-0.000045	0.122327	-0.469308	0.874521	0.870814	0.473480	0.132283	-0.476150	0.745364	0.466599
11444		9.408632	1.515087	5.204006	0.000468	0.018932	-0.000906	1.000000	0.000006	0.000237	-0.000011	0.122556	-0.469589	0.874338	0.870834	0.473461	0.132221	-0.476055	0.745199	0.466959
11445		9.356632	1.508907	5.191740	-0.002544	0.021043	0.000222	1.000000	-0.000032	0.000263	0.000003	0.122802	-0.469897	0.874138	0.870892	0.473382	0.132123	-0.475885	0.745055	0.467362
11446		9.371538	1.509085	5.212813	-0.002348	0.018699	0.000911	1.000000	-0.000029	0.000234	0.000011	0.123034	-0.470157	0.873965	0.870981	0.473258	0.131979	-0.475662	0.744970	0.467724
11447		9.368962	1.494249	5.200564	-0.004829	0.018613	0.002209	1.000000	-0.000060	0.000233	0.000028	0.123303	-0.470396	0.873799	0.871052	0.473176	0.131811	-0.475463	0.744871	0.468083
11448		9.392607	1.462704	5.207759	-0.004032	0.020493	0.001416	1.000000	-0.000050	0.000256	0.000018	0.123587	-0.470677	0.873607	0.871087	0.473144	0.131687	-0.475324	0.744713	0.468475
11449		9.382497	1.474806	5.179441	-0.002093	0.021857	0.001406	1.000000	-0.000026	0.000273	0.000018	0.123887	-0.470985	0.873399	0.871118	0.473121	0.131570	-0.475191	0.744533	0.468897
11450		9.363193	1.495094	5.224709	-0.002829	0.022077	-0.003013	1.000000	-0.000035	0.000276	-0.000038	0.124016	-0.471356	0.873180	0.871223	0.472931	0.131557	-0.474964	0.744419	0.469308
11451		9.375163	1.493192	5.237587	-0.005654	0.024387	-0.003294	1.000000	-0.000071	0.000305	-0.000041	0.124240	-0.471767	0.872926	0.871307	0.472789	0.131506	-0.474750	0.744249	0.469794
11452		9.370849	1.500054	5.221343	-0.006925	0.030217	-0.002872	1.000000	-0.000087	0.000378	-0.000036	0.124506	-0.472287	0.872607	0.871449	0.472551	0.131421	-0.474420	0.744070	0.470409
11453		9.349372	1.519885	5.205455	-0.011701	0.023360	-0.003148	1.000000	-0.000146	0.000292	-0.000039	0.124692	-0.472680	0.872368	0.871637	0.472242	0.131290	-0.474027	0.744017	0.470890
11454		9.360503	1.486290	5.237840	-0.017250	0.016479	-0.005556	1.000000	-0.000216	0.000206	-0.000069	0.124790	-0.472973	0.872195	0.871897	0.471813	0.131107	-0.473523	0.744103	0.471261
11455		9.359236	1.457330	5.271230	-0.014665	0.016290	-0.003680	1.000000	-0.000183	0.000204	-0.000046	0.124907	-0.473241	0.872033	0.872118	0.471452	0.130932	-0.473084	0.744161	0.471610
11456		9.373975	1.457048	5.292585	-0.013276	0.021478	-0.004492	1.000000	-0.000166	0.000268	-0.000056	0.125039	-0.473619	0.871809	0.872351	0.471059	0.130791	-0.472619	0.744170	0.472063
11457		9.307493	1.497337	5.271063	-0.013320	0.027276	-0.007858	1.000000	-0.000166	0.000341	-0.000098	0.125230	-0.474138	0.871499	0.872549	0.470716	0.130712	-0.472204	0.744056	0.472656
11458		9.340748	1.481091	5.261678	-0.008205	0.012713	-0.011020	1.000000	-0.000103	0.000159	-0.000138	0.125137	-0.474427	0.871355	0.872714	0.470390	0.130781	-0.471923	0.744078	0.472902
11459		9.394106	1.448033	5.363304	-0.008630	-0.011214	0.000352	1.000000	-0.000108	-0.000140	0.000004	0.124973	-0.474140	0.871535	0.872874	0.470141	0.130606	-0.471670	0.744418	0.472620
11460		9.390467	1.440596	5.199867	-0.005419	0.019765	-0.002794	1.000000	-0.000068	0.000247	-0.000035	0.125143	-0.474465	0.871334	0.872992	0.469946	0.130518	-0.471406	0.744334	0.473015
11461		9.389508	1.493234	5.176839	0.005765	0.004615	-0.005462	1.000000	0.000072	0.000058	-0.000068	0.125093	-0.474538	0.871301	0.872971	0.469957	0.130620	-0.471459	0.744281	0.473046
11462		9.325538	1.498975	5.255978	0.007081	0.011954	-0.012361	1.000000	0.000089	0.000149	-0.000155	0.124990	-0.474824	0.871160	0.872930	0.469954	0.130904	-0.471562	0.744100	0.473228
11463		9.319720	1.475572	5.246156	0.005820	0.010127	-0.005654	1.000000	0.000073	0.000127	-0.000071	0.125013	-0.475001	0.871060	0.872914	0.469959	0.130996	-0.471586	0.743984	0.473386
11464		9.352087	1.492883	5.234983	0.008810	0.006153	-0.003849	1.000000	0.000110	0.000077	-0.000048	0.124987	-0.475086	0.871018	0.872868	0.470013	0.131110	-0.471678	0.743896	0.473433
11465		9.391581	1.518104	5.250522	0.008315	0.005114	-0.002754	1.000000	0.000104	0.000064	-0.000034	0.124983	-0.475139	0.870989	0.872834	0.470057	0.131177	-0.471742	0.743834	0.473466
11466		9.405804	1.468905	5.232105	0.007051	0.011879	-0.003793	1.000000	0.000088	0.000148	-0.000047	0.125077	-0.475324	0.870875	0.872774	0.470147	0.131257	-0.471828	0.743659	0.473655
11467		9.333725	1.458532	5.245774	0.010149	0.018928	-0.002376	1.000000	0.000127	0.000237	-0.000030	0.125224	-0.475630	0.870686	0.872718	0.470223	0.131353	-0.471892	0.743415	0.473974
11468		9.323751	1.498219	5.301857	0.010830	0.006305	0.000782	1.000000	0.000135	0.000079	0.000010	0.125296	-0.475664	0.870657	0.872649	0.470344	0.131379	-0.472001	0.743317	0.474020
11469		9.318387	1.508609	5.301514	0.009965	0.006572	-0.004524	1.000000	0.000125	0.000082	-0.000057	0.125265	-0.475767	0.870606	0.872617	0.470372	0.131494	-0.472069	0.743233	0.474084
11470		9.376818	1.516893	5.286083	0.010869	0.003832	-0.005694	1.000000	0.000136	0.000048	-0.000071	0.125159	-0.475831	0.870586	0.872552	0.470439	0.131683	-0.472217	0.743150	0.474067
11471		9.388666	1.514440	5.285457	0.004059	0.008035	-0.005603	1.000000	0.000051	0.000100	-0.000070	0.125123	-0.475972	0.870514	0.872568	0.470384	0.131774	-0.472197	0.743095	0.474173
11472		9.340453	1.526488	5.295636	0.003833	0.008530	-0.003374	1.000000	0.000048	0.000107	-0.000042	0.125101	-0.476096	0.870450	0.872578	0.470344	0.131850	-0.472184	0.743040	0.474271
11473		9.326377	1.532739	5.299098	-0.000460	0.006863	-0.007486	1.000000	-0.000006	0.000086	-0.000094	0.125002	-0.476235	0.870388	0.872628	0.470220	0.131958	-0.472117	0.743030	0.474354
11474		9.338207	1.501288	5.265221	-0.002268	0.004522	-0.005139	1.000000	-0.000028	0.000057	-0.000064	0.124939	-0.476302	0.870360	0.872689	0.470100	0.131987	-0.472022	0.743063	0.474397
11475		9.363436	1.493003	5.262258	0.002427	-0.000311	-0.005286	1.000000	0.000030	-0.000004	-0.000066	0.124789	-0.476287	0.870390	0.872740	0.469986	0.132056	-0.471967	0.743145	0.474324
11476		9.390203	1.515754	5.238776	0.003244	-0.000049	-0.005440	1.000000	0.000041	-0.000001	-0.000068	0.124660	-0.476274	0.870415	0.872742	0.469953	0.132155	-0.471996	0.743174	0.474249
11477		9.364361	1.520127	5.265711	0.002492	0.006136	-0.006947	1.000000	0.000031	0.000077	-0.000087	0.124570	-0.476395	0.870362	0.872774	0.469863	0.132266	-0.471962	0.743153	0.474316
11478		9.350317	1.526905	5.268965	0.002472	0.007760	-0.007584	1.000000	0.000031	0.000097	-0.000095	0.124454	-0.476553	0.870292	0.872795	0.469779	0.132429	-0.471954	0.743105	0.474399
11479		9.348876	1.528895	5.270944	0.002080	0.009921	-0.006877	1.000000	0.000026	0.000124	-0.000086	0.124399	-0.476747	0.870194	0.872858	0.469636	0.132516	-0.471851	0.743071	0.474555
11480		9.334822	1.520894	5.257687	-0.000382	0.005648	-0.002854	1.000000	-0.000005	0.000071	-0.000036	0.124409	-0.476808	0.870159	0.872888	0.469582	0.132511	-0.471794	0.743065	0.474620
11481		9.349480	1.491304	5.232227	-0.001585	-0.000282	-0.001981	1.000000	-0.000020	-0.000004	-0.000025	0.124317	-0.476757	0.870200	0.872986	0.469414	0.132464	-0.471637	0.743204	0.474558
11482		9.360584	1.477437	5.244155	0.002042	-0.000704	-0.002478	1.000000	0.000026	-0.000009	-0.000031	0.124234	-0.476703	0.870242	0.873030	0.469333	0.132460	-0.471577	0.743291	0.474483
11483		9.382557	1.477481	5.301958	0.006806	0.003631	-0.000098	1.000000	0.000085	0.000045	-0.000001	0.124200	-0.476708	0.870243	0.873066	0.469268	0.132455	-0.471520	0.743329	0.474481
11484		9.349862	1.522132	5.392636	0.004872	0.013582	-0.003672	1.000000	0.000061	0.000170	-0.000046	0.124281	-0.476927	0.870112	0.873046	0.469285	0.132525	-0.471535	0.743177	0.474703
11485		9.315890	1.563100	5.265305	0.009071	0.004992	-0.006905	1.000000	0.000113	0.000062	-0.000086	0.124168	-0.477028	0.870073	0.873003	0.469310	0.132719	-0.471645	0.743096	0.474720
11486		9.325115	1.495898	5.292001	0.003580	-0.022529	0.001197	1.000000	0.000045	-0.000282	0.000015	0.123891	-0.476522	0.870389	0.872998	0.469327	0.132686	-0.471725	0.743410	0.474149
11487		9.424706	1.515082	5.301257	-0.001184	-0.002280	0.003599	1.000000	-0.000015	-0.000028	0.000045	0.123963	-0.476361	0.870468	0.873011	0.469349	0.132524	-0.471682	0.743500	0.474050
